,text,letterColor,corrAns,congruent,practice.thisRepN,practice.thisTrialN,practice.thisN,practice.thisIndex,trials.thisRepN,trials.thisTrialN,trials.thisN,trials.thisIndex,instr1.started,instr1.stopped,word.started,word.stopped,resp.keys,resp.corr,resp.rt,resp.started,resp.stopped,feedback_2.started,feedback_2.stopped,instrText.started,instrText.stopped,thanksText.started,thanksText.stopped,participant,session,date,expName,psychopyVersion,frameRate,Unnamed: 33
0,red,blue,left,incong,0.0,0.0,0.0,3.0,,,,,9.528437091998056,None,11.227436276996741,None,left,1.0,0.5741900239954703,11.227436276996741,None,11.844547327986222,None,,,,,rev02,1.0,2020_Apr_04_1350,stroopReverse,2020.1.2,60.43838913749771,
1,red,green,left,incong,0.0,1.0,1.0,2.0,,,,,,,13.328185521997511,None,left,1.0,0.4434983239916619,13.328185521997511,None,13.79253886299557,None,,,,,rev02,1.0,2020_Apr_04_1350,stroopReverse,2020.1.2,60.43838913749771,
2,blue,blue,right,cong,0.0,2.0,2.0,11.0,,,,,,,15.277845322998473,None,right,1.0,0.8886697039997671,15.277845322998473,None,16.198114508995786,None,,,,,rev02,1.0,2020_Apr_04_1350,stroopReverse,2020.1.2,60.43838913749771,
3,blue,red,right,incong,0.0,3.0,3.0,8.0,,,,,,,17.69433847998152,None,right,1.0,0.6890030690119602,17.69433847998152,None,18.41692279500421,None,,,,,rev02,1.0,2020_Apr_04_1350,stroopReverse,2020.1.2,60.43838913749771,
4,green,red,down,incong,0.0,4.0,4.0,4.0,,,,,,,19.91157229599776,None,down,1.0,0.354764404008165,19.91157229599776,None,20.291548298002454,None,,,,,rev02,1.0,2020_Apr_04_1350,stroopReverse,2020.1.2,60.43838913749771,
5,blue,blue,right,cong,0.0,5.0,5.0,10.0,,,,,,,21.77729536397965,None,right,1.0,0.7390502439811826,21.77729536397965,None,22.545688083977442,None,,,,,rev02,1.0,2020_Apr_04_1350,stroopReverse,2020.1.2,60.43838913749771,
6,green,blue,down,incong,0.0,6.0,6.0,7.0,,,,,,,24.026230299001327,None,down,1.0,0.5861925140197854,24.026230299001327,None,24.64751511599752,None,,,,,rev02,1.0,2020_Apr_04_1350,stroopReverse,2020.1.2,60.43838913749771,
7,green,green,down,cong,0.0,7.0,7.0,6.0,,,,,,,26.14344464399619,None,down,1.0,0.9467033469991292,26.14344464399619,None,27.11011999999755,None,,,,,rev02,1.0,2020_Apr_04_1350,stroopReverse,2020.1.2,60.43838913749771,
8,green,green,down,cong,0.0,8.0,8.0,5.0,,,,,,,28.59458769997582,None,down,1.0,1.4625846209819429,28.59458769997582,None,30.08171607198892,None,,,,,rev02,1.0,2020_Apr_04_1350,stroopReverse,2020.1.2,60.43838913749771,
9,red,red,left,cong,0.0,9.0,9.0,1.0,,,,,,,31.575636139983548,None,left,1.0,0.5384986969875172,31.575636139983548,None,32.143223994993605,None,,,,,rev02,1.0,2020_Apr_04_1350,stroopReverse,2020.1.2,60.43838913749771,
10,blue,green,right,incong,0.0,10.0,10.0,9.0,,,,,,,33.62662792598712,None,right,1.0,2.3104129370185547,33.62662792598712,None,35.96345506698707,None,,,,,rev02,1.0,2020_Apr_04_1350,stroopReverse,2020.1.2,60.43838913749771,
11,red,red,left,cong,0.0,11.0,11.0,0.0,,,,,,,37.461803867976414,None,left,1.0,0.5342480730032548,37.461803867976414,None,38.01552701499895,None,,,,,rev02,1.0,2020_Apr_04_1350,stroopReverse,2020.1.2,60.43838913749771,
12,green,blue,down,incong,,,,,0.0,0.0,0.0,7.0,,,40.844475567981135,None,down,1.0,0.8902619190048426,40.844475567981135,None,,,39.049906158994425,None,,,rev02,1.0,2020_Apr_04_1350,stroopReverse,2020.1.2,60.43838913749771,
13,red,blue,left,incong,,,,,0.0,1.0,1.0,3.0,,,42.242004711995826,None,left,1.0,0.3546867689874489,42.242004711995826,None,,,,,,,rev02,1.0,2020_Apr_04_1350,stroopReverse,2020.1.2,60.43838913749771,
14,green,red,down,incong,,,,,0.0,2.0,2.0,4.0,,,43.10950763997972,None,down,1.0,0.3523385070147924,43.10950763997972,None,,,,,,,rev02,1.0,2020_Apr_04_1350,stroopReverse,2020.1.2,60.43838913749771,
15,blue,blue,right,cong,,,,,0.0,3.0,3.0,10.0,,,43.95937980999588,None,right,1.0,0.4924719280097634,43.95937980999588,None,,,,,,,rev02,1.0,2020_Apr_04_1350,stroopReverse,2020.1.2,60.43838913749771,
16,green,green,down,cong,,,,,0.0,4.0,4.0,6.0,,,44.961021166993305,None,down,1.0,0.6846331289852969,44.961021166993305,None,,,,,,,rev02,1.0,2020_Apr_04_1350,stroopReverse,2020.1.2,60.43838913749771,
17,red,red,left,cong,,,,,0.0,5.0,5.0,1.0,,,46.158685801987296,None,left,1.0,0.5038474900065921,46.158685801987296,None,,,,,,,rev02,1.0,2020_Apr_04_1350,stroopReverse,2020.1.2,60.43838913749771,
18,blue,red,right,incong,,,,,0.0,6.0,6.0,8.0,,,47.176491836988134,None,right,1.0,0.8141615729837213,47.176491836988134,None,,,,,,,rev02,1.0,2020_Apr_04_1350,stroopReverse,2020.1.2,60.43838913749771,
19,red,green,left,incong,,,,,0.0,7.0,7.0,2.0,,,48.494418224989204,None,left,1.0,0.5882672489969991,48.494418224989204,None,,,,,,,rev02,1.0,2020_Apr_04_1350,stroopReverse,2020.1.2,60.43838913749771,
20,blue,blue,right,cong,,,,,0.0,8.0,8.0,11.0,,,49.591944249987144,None,right,1.0,0.7016832459776197,49.591944249987144,None,,,,,,,rev02,1.0,2020_Apr_04_1350,stroopReverse,2020.1.2,60.43838913749771,
21,green,green,down,cong,,,,,0.0,9.0,9.0,5.0,,,50.79193671999383,None,down,1.0,0.4356535910046659,50.79193671999383,None,,,,,,,rev02,1.0,2020_Apr_04_1350,stroopReverse,2020.1.2,60.43838913749771,
22,blue,green,right,incong,,,,,0.0,10.0,10.0,9.0,,,51.726421725994435,None,right,1.0,0.9051344089966732,51.726421725994435,None,,,,,,,rev02,1.0,2020_Apr_04_1350,stroopReverse,2020.1.2,60.43838913749771,
23,red,red,left,cong,,,,,0.0,11.0,11.0,0.0,,,53.1448031589971,None,left,1.0,0.5345943809952587,53.1448031589971,None,,,,,,,rev02,1.0,2020_Apr_04_1350,stroopReverse,2020.1.2,60.43838913749771,
24,red,red,left,cong,,,,,1.0,0.0,12.0,1.0,,,54.19325735798338,None,left,1.0,0.6992418080044445,54.19325735798338,None,,,,,,,rev02,1.0,2020_Apr_04_1350,stroopReverse,2020.1.2,60.43838913749771,
25,green,green,down,cong,,,,,1.0,1.0,13.0,6.0,,,55.39421076298458,None,down,1.0,0.9581162149843294,55.39421076298458,None,,,,,,,rev02,1.0,2020_Apr_04_1350,stroopReverse,2020.1.2,60.43838913749771,
26,red,red,left,cong,,,,,1.0,2.0,14.0,0.0,,,56.8608149959764,None,left,1.0,0.5165961510210764,56.8608149959764,None,,,,,,,rev02,1.0,2020_Apr_04_1350,stroopReverse,2020.1.2,60.43838913749771,
27,red,green,left,incong,,,,,1.0,3.0,15.0,2.0,,,57.87732703599613,None,left,1.0,0.4688895859871991,57.87732703599613,None,,,,,,,rev02,1.0,2020_Apr_04_1350,stroopReverse,2020.1.2,60.43838913749771,
28,blue,blue,right,cong,,,,,1.0,4.0,16.0,10.0,,,58.85959198398632,None,right,1.0,0.5887567160243634,58.85959198398632,None,,,,,,,rev02,1.0,2020_Apr_04_1350,stroopReverse,2020.1.2,60.43838913749771,
29,green,red,down,incong,,,,,1.0,5.0,17.0,4.0,,,59.95837661297992,None,down,1.0,0.8659056090109516,59.95837661297992,None,,,,,,,rev02,1.0,2020_Apr_04_1350,stroopReverse,2020.1.2,60.43838913749771,
30,blue,red,right,incong,,,,,1.0,6.0,18.0,8.0,,,61.324908775975935,None,right,1.0,1.026239925995469,61.324908775975935,None,,,,,,,rev02,1.0,2020_Apr_04_1350,stroopReverse,2020.1.2,60.43838913749771,
31,red,blue,left,incong,,,,,1.0,7.0,19.0,3.0,,,62.86098048297572,None,left,1.0,0.4510918690066319,62.86098048297572,None,,,,,,,rev02,1.0,2020_Apr_04_1350,stroopReverse,2020.1.2,60.43838913749771,
32,blue,green,right,incong,,,,,1.0,8.0,20.0,9.0,,,63.8274796109763,None,right,1.0,0.7106257859850302,63.8274796109763,None,,,,,,,rev02,1.0,2020_Apr_04_1350,stroopReverse,2020.1.2,60.43838913749771,
33,blue,blue,right,cong,,,,,1.0,9.0,21.0,11.0,,,65.0438531260006,None,right,1.0,0.5032739920134189,65.0438531260006,None,,,,,,,rev02,1.0,2020_Apr_04_1350,stroopReverse,2020.1.2,60.43838913749771,
34,green,blue,down,incong,,,,,1.0,10.0,22.0,7.0,,,66.06073947300321,None,down,1.0,0.5122210900008213,66.06073947300321,None,,,,,,,rev02,1.0,2020_Apr_04_1350,stroopReverse,2020.1.2,60.43838913749771,
35,green,green,down,cong,,,,,1.0,11.0,23.0,5.0,,,67.07682378398022,None,down,1.0,1.2521653239964508,67.07682378398022,None,,,,,,,rev02,1.0,2020_Apr_04_1350,stroopReverse,2020.1.2,60.43838913749771,
36,blue,green,right,incong,,,,,2.0,0.0,24.0,9.0,,,68.8440724099928,None,right,1.0,1.477936398005113,68.8440724099928,None,,,,,,,rev02,1.0,2020_Apr_04_1350,stroopReverse,2020.1.2,60.43838913749771,
37,red,red,left,cong,,,,,2.0,1.0,25.0,0.0,,,70.8256201199838,None,left,1.0,0.5234309090010356,70.8256201199838,None,,,,,,,rev02,1.0,2020_Apr_04_1350,stroopReverse,2020.1.2,60.43838913749771,
38,green,green,down,cong,,,,,2.0,2.0,26.0,5.0,,,71.86099537397968,None,right,0.0,0.6169981199782342,71.86099537397968,None,,,,,,,rev02,1.0,2020_Apr_04_1350,stroopReverse,2020.1.2,60.43838913749771,
39,blue,blue,right,cong,,,,,2.0,3.0,27.0,11.0,,,72.97524317700301,None,right,1.0,0.6097162930236664,72.97524317700301,None,,,,,,,rev02,1.0,2020_Apr_04_1350,stroopReverse,2020.1.2,60.43838913749771,
40,blue,red,right,incong,,,,,2.0,4.0,28.0,8.0,,,74.09264999697916,None,right,1.0,1.0011948300234508,74.09264999697916,None,,,,,,,rev02,1.0,2020_Apr_04_1350,stroopReverse,2020.1.2,60.43838913749771,
41,red,red,left,cong,,,,,2.0,5.0,29.0,1.0,,,75.59130345500306,None,left,1.0,0.5533738009980881,75.59130345500306,None,,,,,,,rev02,1.0,2020_Apr_04_1350,stroopReverse,2020.1.2,60.43838913749771,
42,green,green,down,cong,,,,,2.0,6.0,30.0,6.0,,,76.65878985798919,None,down,1.0,0.8049160829978064,76.65878985798919,None,,,,,,,rev02,1.0,2020_Apr_04_1350,stroopReverse,2020.1.2,60.43838913749771,
43,green,red,down,incong,,,,,2.0,7.0,31.0,4.0,,,77.97792821598705,None,down,1.0,0.6558725670038257,77.97792821598705,None,,,,,,,rev02,1.0,2020_Apr_04_1350,stroopReverse,2020.1.2,60.43838913749771,
44,green,blue,down,incong,,,,,2.0,8.0,32.0,7.0,,,79.14324760099406,None,down,1.0,0.7832964219851419,79.14324760099406,None,,,,,,,rev02,1.0,2020_Apr_04_1350,stroopReverse,2020.1.2,60.43838913749771,
45,red,green,left,incong,,,,,2.0,9.0,33.0,2.0,,,80.4418492729892,None,left,1.0,1.5797920360055286,80.4418492729892,None,,,,,,,rev02,1.0,2020_Apr_04_1350,stroopReverse,2020.1.2,60.43838913749771,
46,blue,blue,right,cong,,,,,2.0,10.0,34.0,10.0,,,82.52531566098331,None,right,1.0,0.6164016680268105,82.52531566098331,None,,,,,,,rev02,1.0,2020_Apr_04_1350,stroopReverse,2020.1.2,60.43838913749771,
47,red,blue,left,incong,,,,,2.0,11.0,35.0,3.0,,,83.64142366099986,None,left,1.0,0.4731815199775156,83.64142366099986,None,,,,,,,rev02,1.0,2020_Apr_04_1350,stroopReverse,2020.1.2,60.43838913749771,
48,green,blue,down,incong,,,,,3.0,0.0,36.0,7.0,,,84.62778560098376,None,down,1.0,0.6568719830247574,84.62778560098376,None,,,,,,,rev02,1.0,2020_Apr_04_1350,stroopReverse,2020.1.2,60.43838913749771,
49,red,blue,left,incong,,,,,3.0,1.0,37.0,3.0,,,85.7927773249976,None,left,1.0,0.7248126390040852,85.7927773249976,None,,,,,,,rev02,1.0,2020_Apr_04_1350,stroopReverse,2020.1.2,60.43838913749771,
50,green,green,down,cong,,,,,3.0,2.0,38.0,6.0,,,87.02506858197741,None,down,1.0,2.0225245989859104,87.02506858197741,None,,,,,,,rev02,1.0,2020_Apr_04_1350,stroopReverse,2020.1.2,60.43838913749771,
51,red,green,left,incong,,,,,3.0,3.0,39.0,2.0,,,89.55785373499384,None,left,1.0,0.6645291479944717,89.55785373499384,None,,,,,,,rev02,1.0,2020_Apr_04_1350,stroopReverse,2020.1.2,60.43838913749771,
52,blue,green,right,incong,,,,,3.0,4.0,40.0,9.0,,,90.72658731398407,None,right,1.0,0.7997949080017861,90.72658731398407,None,,,,,,,rev02,1.0,2020_Apr_04_1350,stroopReverse,2020.1.2,60.43838913749771,
53,blue,blue,right,cong,,,,,3.0,5.0,41.0,11.0,,,92.0264647299773,None,right,1.0,0.6628992159967311,92.0264647299773,None,,,,,,,rev02,1.0,2020_Apr_04_1350,stroopReverse,2020.1.2,60.43838913749771,
54,green,red,down,incong,,,,,3.0,6.0,42.0,4.0,,,93.19175955597893,None,down,1.0,0.6755750500014983,93.19175955597893,None,,,,,,,rev02,1.0,2020_Apr_04_1350,stroopReverse,2020.1.2,60.43838913749771,
55,red,red,left,cong,,,,,3.0,7.0,43.0,0.0,,,94.37522103899393,None,left,1.0,0.38905710002291016,94.37522103899393,None,,,,,,,rev02,1.0,2020_Apr_04_1350,stroopReverse,2020.1.2,60.43838913749771,
56,blue,red,right,incong,,,,,3.0,8.0,44.0,8.0,,,95.27492338197771,None,right,1.0,0.6423400689964183,95.27492338197771,None,,,,,,,rev02,1.0,2020_Apr_04_1350,stroopReverse,2020.1.2,60.43838913749771,
57,green,green,down,cong,,,,,3.0,9.0,45.0,5.0,,,96.4255705039832,None,down,1.0,0.7296678749844432,96.4255705039832,None,,,,,,,rev02,1.0,2020_Apr_04_1350,stroopReverse,2020.1.2,60.43838913749771,
58,red,red,left,cong,,,,,3.0,10.0,46.0,1.0,,,97.66097245799028,None,left,1.0,0.4862011540099047,97.66097245799028,None,,,,,,,rev02,1.0,2020_Apr_04_1350,stroopReverse,2020.1.2,60.43838913749771,
59,blue,blue,right,cong,,,,,3.0,11.0,47.0,10.0,,,98.66044611198595,None,right,1.0,0.8005219850165304,98.66044611198595,None,,,,,,,rev02,1.0,2020_Apr_04_1350,stroopReverse,2020.1.2,60.43838913749771,
60,blue,green,right,incong,,,,,4.0,0.0,48.0,9.0,,,99.97631464898586,None,right,1.0,0.8728669729898684,99.97631464898586,None,,,,,,,rev02,1.0,2020_Apr_04_1350,stroopReverse,2020.1.2,60.43838913749771,
61,red,blue,left,incong,,,,,4.0,1.0,49.0,3.0,,,101.35775703197578,None,left,1.0,0.6526938140159473,101.35775703197578,None,,,,,,,rev02,1.0,2020_Apr_04_1350,stroopReverse,2020.1.2,60.43838913749771,
62,green,blue,down,incong,,,,,4.0,2.0,50.0,7.0,,,102.52620433899574,None,down,1.0,0.8555287490016781,102.52620433899574,None,,,,,,,rev02,1.0,2020_Apr_04_1350,stroopReverse,2020.1.2,60.43838913749771,
63,red,red,left,cong,,,,,4.0,3.0,51.0,0.0,,,103.89163441199345,None,left,1.0,0.671483444981277,103.89163441199345,None,,,,,,,rev02,1.0,2020_Apr_04_1350,stroopReverse,2020.1.2,60.43838913749771,
64,red,green,left,incong,,,,,4.0,4.0,52.0,2.0,,,105.07613198598848,None,left,1.0,1.3167046100134032,105.07613198598848,None,,,,,,,rev02,1.0,2020_Apr_04_1350,stroopReverse,2020.1.2,60.43838913749771,
65,red,red,left,cong,,,,,4.0,5.0,53.0,1.0,,,106.90999789300258,None,left,1.0,0.5767908019770402,106.90999789300258,None,,,,,,,rev02,1.0,2020_Apr_04_1350,stroopReverse,2020.1.2,60.43838913749771,
66,blue,blue,right,cong,,,,,4.0,6.0,54.0,11.0,,,107.99168767698576,None,right,1.0,0.8491920249944087,107.99168767698576,None,,,,,,,rev02,1.0,2020_Apr_04_1350,stroopReverse,2020.1.2,60.43838913749771,
67,blue,red,right,incong,,,,,4.0,7.0,55.0,8.0,,,109.34270291798748,None,right,1.0,0.6881698440120091,109.34270291798748,None,,,,,,,rev02,1.0,2020_Apr_04_1350,stroopReverse,2020.1.2,60.43838913749771,
68,green,green,down,cong,,,,,4.0,8.0,56.0,6.0,,,110.54401033098112,None,down,1.0,0.8596004789869767,110.54401033098112,None,,,,,,,rev02,1.0,2020_Apr_04_1350,stroopReverse,2020.1.2,60.43838913749771,
69,green,green,down,cong,,,,,4.0,9.0,57.0,5.0,,,111.91066791099728,None,down,1.0,0.6419688989990391,111.91066791099728,None,,,,,,,rev02,1.0,2020_Apr_04_1350,stroopReverse,2020.1.2,60.43838913749771,
70,green,red,down,incong,,,,,4.0,10.0,58.0,4.0,,,113.06047437997768,None,down,1.0,0.5770565830171108,113.06047437997768,None,,,,,,,rev02,1.0,2020_Apr_04_1350,stroopReverse,2020.1.2,60.43838913749771,
71,blue,blue,right,cong,,,,,4.0,11.0,59.0,10.0,,,114.14072922497871,None,right,1.0,0.6930187520047184,114.14072922497871,None,,,,,,,rev02,1.0,2020_Apr_04_1350,stroopReverse,2020.1.2,60.43838913749771,
72,red,red,left,cong,0.0,0.0,0.0,0.0,,,,,11.56727542099543,None,20.99120420200052,None,left,1.0,0.8883012259902898,20.99120420200052,None,21.924471145001007,None,,,,,rev01,1.0,2020_Apr_04_1348,stroopReverse,2020.1.2,59.962180172386205,
73,green,green,down,cong,0.0,1.0,1.0,5.0,,,,,,,23.391387968003983,None,down,1.0,0.5851297050248832,23.391387968003983,None,24.011628420994388,None,,,,,rev01,1.0,2020_Apr_04_1348,stroopReverse,2020.1.2,59.962180172386205,
74,blue,red,right,incong,0.0,2.0,2.0,8.0,,,,,,,25.50814548900234,None,left,0.0,0.6383601340057794,25.50814548900234,None,26.19207128099515,None,,,,,rev01,1.0,2020_Apr_04_1348,stroopReverse,2020.1.2,59.962180172386205,
75,green,red,down,incong,0.0,3.0,3.0,4.0,,,,,,,27.671697832003698,None,down,1.0,2.453315916995052,27.671697832003698,None,30.175363747985106,None,,,,,rev01,1.0,2020_Apr_04_1348,stroopReverse,2020.1.2,59.962180172386205,
76,green,blue,down,incong,0.0,4.0,4.0,7.0,,,,,,,31.64224635300343,None,down,1.0,3.5837215009960346,31.64224635300343,None,35.262000292976154,None,,,,,rev01,1.0,2020_Apr_04_1348,stroopReverse,2020.1.2,59.962180172386205,
77,red,green,left,incong,0.0,5.0,5.0,2.0,,,,,,,36.75528626400046,None,left,1.0,1.7383901189896278,36.75528626400046,None,38.54158842298784,None,,,,,rev01,1.0,2020_Apr_04_1348,stroopReverse,2020.1.2,59.962180172386205,
78,blue,green,right,incong,0.0,6.0,6.0,9.0,,,,,,,40.02277229400352,None,right,1.0,4.118683278997197,40.02277229400352,None,44.17461561100208,None,,,,,rev01,1.0,2020_Apr_04_1348,stroopReverse,2020.1.2,59.962180172386205,
79,green,green,down,cong,0.0,7.0,7.0,6.0,,,,,,,45.63969868098502,None,down,1.0,4.204820012004348,45.63969868098502,None,49.872523158002885,None,,,,,rev01,1.0,2020_Apr_04_1348,stroopReverse,2020.1.2,59.962180172386205,
80,blue,blue,right,cong,0.0,8.0,8.0,10.0,,,,,,,51.357784781983355,None,right,1.0,0.7235426319821272,51.357784781983355,None,52.11228648299584,None,,,,,rev01,1.0,2020_Apr_04_1348,stroopReverse,2020.1.2,59.962180172386205,
81,blue,blue,right,cong,0.0,9.0,9.0,11.0,,,,,,,53.606422194978215,None,right,1.0,1.259840691986028,53.606422194978215,None,54.894514853978755,None,,,,,rev01,1.0,2020_Apr_04_1348,stroopReverse,2020.1.2,59.962180172386205,
82,red,red,left,cong,0.0,10.0,10.0,1.0,,,,,,,56.388634225004346,None,left,1.0,0.6123855920159258,56.388634225004346,None,57.02175258399802,None,,,,,rev01,1.0,2020_Apr_04_1348,stroopReverse,2020.1.2,59.962180172386205,
83,red,blue,left,incong,0.0,11.0,11.0,3.0,,,,,,,58.50720237698988,None,right,0.0,1.0150315729842987,58.50720237698988,None,59.54341662098886,None,,,,,rev01,1.0,2020_Apr_04_1348,stroopReverse,2020.1.2,59.962180172386205,
84,red,green,left,incong,,,,,0.0,0.0,0.0,2.0,,,68.75806212599855,None,left,1.0,2.8006221260002353,68.75806212599855,None,,,60.591315061989015,None,,,rev01,1.0,2020_Apr_04_1348,stroopReverse,2020.1.2,59.962180172386205,
85,green,blue,down,incong,,,,,0.0,1.0,1.0,7.0,,,72.0716437639785,None,down,1.0,1.3180964460188989,72.0716437639785,None,,,,,,,rev01,1.0,2020_Apr_04_1348,stroopReverse,2020.1.2,59.962180172386205,
86,blue,red,right,incong,,,,,0.0,2.0,2.0,8.0,,,73.88938332599355,None,right,1.0,1.156269484985387,73.88938332599355,None,,,,,,,rev01,1.0,2020_Apr_04_1348,stroopReverse,2020.1.2,59.962180172386205,
87,blue,blue,right,cong,,,,,0.0,3.0,3.0,10.0,,,75.55683974799467,None,right,1.0,0.9646622500149532,75.55683974799467,None,,,,,,,rev01,1.0,2020_Apr_04_1348,stroopReverse,2020.1.2,59.962180172386205,
88,blue,green,right,incong,,,,,0.0,4.0,4.0,9.0,,,77.02373305399671,None,right,1.0,0.5219380009802991,77.02373305399671,None,,,,,,,rev01,1.0,2020_Apr_04_1348,stroopReverse,2020.1.2,59.962180172386205,
89,green,green,down,cong,,,,,0.0,5.0,5.0,5.0,,,78.05624792000162,None,down,1.0,0.5861614810128231,78.05624792000162,None,,,,,,,rev01,1.0,2020_Apr_04_1348,stroopReverse,2020.1.2,59.962180172386205,
90,blue,blue,right,cong,,,,,0.0,6.0,6.0,11.0,,,79.15535909897879,None,right,1.0,0.8460352160036564,79.15535909897879,None,,,,,,,rev01,1.0,2020_Apr_04_1348,stroopReverse,2020.1.2,59.962180172386205,
91,red,red,left,cong,,,,,0.0,7.0,7.0,0.0,,,80.50474984900211,None,left,1.0,1.1318092069996055,80.50474984900211,None,,,,,,,rev01,1.0,2020_Apr_04_1348,stroopReverse,2020.1.2,59.962180172386205,
92,red,red,left,cong,,,,,0.0,8.0,8.0,1.0,,,82.13855298998533,None,left,1.0,0.4607599760056473,82.13855298998533,None,,,,,,,rev01,1.0,2020_Apr_04_1348,stroopReverse,2020.1.2,59.962180172386205,
93,green,red,down,incong,,,,,0.0,9.0,9.0,4.0,,,83.10719056599191,None,down,1.0,1.136177028005477,83.10719056599191,None,,,,,,,rev01,1.0,2020_Apr_04_1348,stroopReverse,2020.1.2,59.962180172386205,
94,red,blue,left,incong,,,,,0.0,10.0,10.0,3.0,,,84.75520543998573,None,right,0.0,0.6832126530061942,84.75520543998573,None,,,,,,,rev01,1.0,2020_Apr_04_1348,stroopReverse,2020.1.2,59.962180172386205,
95,green,green,down,cong,,,,,0.0,11.0,11.0,6.0,,,85.94033363700146,None,down,1.0,0.9789737469982356,85.94033363700146,None,,,,,,,rev01,1.0,2020_Apr_04_1348,stroopReverse,2020.1.2,59.962180172386205,
96,blue,green,right,incong,,,,,1.0,0.0,12.0,9.0,,,87.42455365500065,None,right,1.0,1.8995601499918848,87.42455365500065,None,,,,,,,rev01,1.0,2020_Apr_04_1348,stroopReverse,2020.1.2,59.962180172386205,
97,blue,blue,right,cong,,,,,1.0,1.0,13.0,10.0,,,89.83991799299837,None,right,1.0,0.7053424600162543,89.83991799299837,None,,,,,,,rev01,1.0,2020_Apr_04_1348,stroopReverse,2020.1.2,59.962180172386205,
98,blue,blue,right,cong,,,,,1.0,2.0,14.0,11.0,,,91.05609768099384,None,right,1.0,0.4349684540065937,91.05609768099384,None,,,,,,,rev01,1.0,2020_Apr_04_1348,stroopReverse,2020.1.2,59.962180172386205,
99,red,red,left,cong,,,,,1.0,3.0,15.0,0.0,,,92.00699844097835,None,left,1.0,0.5349852469807956,92.00699844097835,None,,,,,,,rev01,1.0,2020_Apr_04_1348,stroopReverse,2020.1.2,59.962180172386205,
100,green,red,down,incong,,,,,1.0,4.0,16.0,4.0,,,93.05709687198394,None,down,1.0,0.7768694320111535,93.05709687198394,None,,,,,,,rev01,1.0,2020_Apr_04_1348,stroopReverse,2020.1.2,59.962180172386205,
101,red,blue,left,incong,,,,,1.0,5.0,17.0,3.0,,,94.33886446399264,None,left,1.0,0.8439155439846218,94.33886446399264,None,,,,,,,rev01,1.0,2020_Apr_04_1348,stroopReverse,2020.1.2,59.962180172386205,
102,red,red,left,cong,,,,,1.0,6.0,18.0,1.0,,,95.6897805579938,None,left,1.0,0.6190940469969064,95.6897805579938,None,,,,,,,rev01,1.0,2020_Apr_04_1348,stroopReverse,2020.1.2,59.962180172386205,
103,green,blue,down,incong,,,,,1.0,7.0,19.0,7.0,,,96.82248062398868,None,down,1.0,1.098340113006998,96.82248062398868,None,,,,,,,rev01,1.0,2020_Apr_04_1348,stroopReverse,2020.1.2,59.962180172386205,
104,green,green,down,cong,,,,,1.0,8.0,20.0,5.0,,,98.42294663799112,None,down,1.0,0.7170230879855808,98.42294663799112,None,,,,,,,rev01,1.0,2020_Apr_04_1348,stroopReverse,2020.1.2,59.962180172386205,
105,green,green,down,cong,,,,,1.0,9.0,21.0,6.0,,,99.64098308698158,None,down,1.0,0.4578467050159816,99.64098308698158,None,,,,,,,rev01,1.0,2020_Apr_04_1348,stroopReverse,2020.1.2,59.962180172386205,
106,red,green,left,incong,,,,,1.0,10.0,22.0,2.0,,,100.60575159898144,None,left,1.0,0.8921773780020885,100.60575159898144,None,,,,,,,rev01,1.0,2020_Apr_04_1348,stroopReverse,2020.1.2,59.962180172386205,
107,blue,red,right,incong,,,,,1.0,11.0,23.0,8.0,,,102.0051802340022,None,left,0.0,2.21362890698947,102.0051802340022,None,,,,,,,rev01,1.0,2020_Apr_04_1348,stroopReverse,2020.1.2,59.962180172386205,
108,blue,blue,right,cong,,,,,2.0,0.0,24.0,10.0,,,104.72159425899737,None,right,1.0,0.8460096689814236,104.72159425899737,None,,,,,,,rev01,1.0,2020_Apr_04_1348,stroopReverse,2020.1.2,59.962180172386205,
109,blue,green,right,incong,,,,,2.0,1.0,25.0,9.0,,,106.07275217198185,None,right,1.0,0.8299278990016319,106.07275217198185,None,,,,,,,rev01,1.0,2020_Apr_04_1348,stroopReverse,2020.1.2,59.962180172386205,
110,green,red,down,incong,,,,,2.0,2.0,26.0,4.0,,,107.40480877200024,None,down,1.0,0.8669038180087227,107.40480877200024,None,,,,,,,rev01,1.0,2020_Apr_04_1348,stroopReverse,2020.1.2,59.962180172386205,
111,red,blue,left,incong,,,,,2.0,3.0,27.0,3.0,,,108.77124303099116,None,left,1.0,0.8574660500162281,108.77124303099116,None,,,,,,,rev01,1.0,2020_Apr_04_1348,stroopReverse,2020.1.2,59.962180172386205,
112,blue,blue,right,cong,,,,,2.0,4.0,28.0,11.0,,,110.13927796500502,None,right,1.0,0.8591740170086268,110.13927796500502,None,,,,,,,rev01,1.0,2020_Apr_04_1348,stroopReverse,2020.1.2,59.962180172386205,
113,red,red,left,cong,,,,,2.0,5.0,29.0,1.0,,,111.5041951989988,None,left,1.0,0.4752571269928012,111.5041951989988,None,,,,,,,rev01,1.0,2020_Apr_04_1348,stroopReverse,2020.1.2,59.962180172386205,
114,green,blue,down,incong,,,,,2.0,6.0,30.0,7.0,,,112.48783708497648,None,down,1.0,0.7045321739860809,112.48783708497648,None,,,,,,,rev01,1.0,2020_Apr_04_1348,stroopReverse,2020.1.2,59.962180172386205,
115,green,green,down,cong,,,,,2.0,7.0,31.0,6.0,,,113.70615626798826,None,down,1.0,0.4723543990112376,113.70615626798826,None,,,,,,,rev01,1.0,2020_Apr_04_1348,stroopReverse,2020.1.2,59.962180172386205,
116,green,green,down,cong,,,,,2.0,8.0,32.0,5.0,,,114.6897530849965,None,down,1.0,0.36254585898132063,114.6897530849965,None,,,,,,,rev01,1.0,2020_Apr_04_1348,stroopReverse,2020.1.2,59.962180172386205,
117,red,red,left,cong,,,,,2.0,9.0,33.0,0.0,,,115.55468604300405,None,left,1.0,0.4707245629979298,115.55468604300405,None,,,,,,,rev01,1.0,2020_Apr_04_1348,stroopReverse,2020.1.2,59.962180172386205,
118,red,green,left,incong,,,,,2.0,10.0,34.0,2.0,,,116.53934614398169,None,left,1.0,0.5460241590044461,116.53934614398169,None,,,,,,,rev01,1.0,2020_Apr_04_1348,stroopReverse,2020.1.2,59.962180172386205,
119,blue,red,right,incong,,,,,2.0,11.0,35.0,8.0,,,117.59123208897655,None,right,1.0,0.6941401450021658,117.59123208897655,None,,,,,,,rev01,1.0,2020_Apr_04_1348,stroopReverse,2020.1.2,59.962180172386205,
120,red,green,left,incong,,,,,3.0,0.0,36.0,2.0,,,118.78914170397913,None,left,1.0,0.5800768950139172,118.78914170397913,None,,,,,,,rev01,1.0,2020_Apr_04_1348,stroopReverse,2020.1.2,59.962180172386205,
121,red,red,left,cong,,,,,3.0,1.0,37.0,0.0,,,119.87315202699392,None,left,1.0,0.46335552202072,119.87315202699392,None,,,,,,,rev01,1.0,2020_Apr_04_1348,stroopReverse,2020.1.2,59.962180172386205,
122,blue,blue,right,cong,,,,,3.0,2.0,38.0,11.0,,,120.83969445899127,None,right,1.0,0.5615497670078184,120.83969445899127,None,,,,,,,rev01,1.0,2020_Apr_04_1348,stroopReverse,2020.1.2,59.962180172386205,
123,red,blue,left,incong,,,,,3.0,3.0,39.0,3.0,,,121.904107579001,None,left,1.0,0.5781570870021824,121.904107579001,None,,,,,,,rev01,1.0,2020_Apr_04_1348,stroopReverse,2020.1.2,59.962180172386205,
124,green,red,down,incong,,,,,3.0,4.0,40.0,4.0,,,122.98671609998564,None,down,1.0,0.6055308520153629,122.98671609998564,None,,,,,,,rev01,1.0,2020_Apr_04_1348,stroopReverse,2020.1.2,59.962180172386205,
125,blue,red,right,incong,,,,,3.0,5.0,41.0,8.0,,,124.10783224998157,None,right,1.0,0.5394110350171104,124.10783224998157,None,,,,,,,rev01,1.0,2020_Apr_04_1348,stroopReverse,2020.1.2,59.962180172386205,
126,green,green,down,cong,,,,,3.0,6.0,42.0,5.0,,,125.15402680399711,None,down,1.0,0.6971096030029003,125.15402680399711,None,,,,,,,rev01,1.0,2020_Apr_04_1348,stroopReverse,2020.1.2,59.962180172386205,
127,green,green,down,cong,,,,,3.0,7.0,43.0,6.0,,,126.35552896099398,None,down,1.0,0.4864533620129805,126.35552896099398,None,,,,,,,rev01,1.0,2020_Apr_04_1348,stroopReverse,2020.1.2,59.962180172386205,
128,red,red,left,cong,,,,,3.0,8.0,44.0,1.0,,,127.35402378899744,None,left,1.0,0.4601086670008954,127.35402378899744,None,,,,,,,rev01,1.0,2020_Apr_04_1348,stroopReverse,2020.1.2,59.962180172386205,
129,blue,green,right,incong,,,,,3.0,9.0,45.0,9.0,,,128.3227777479915,None,right,1.0,0.7472928729839623,128.3227777479915,None,,,,,,,rev01,1.0,2020_Apr_04_1348,stroopReverse,2020.1.2,59.962180172386205,
130,blue,blue,right,cong,,,,,3.0,10.0,46.0,10.0,,,129.57239302797822,None,right,1.0,0.7057253920065705,129.57239302797822,None,,,,,,,rev01,1.0,2020_Apr_04_1348,stroopReverse,2020.1.2,59.962180172386205,
131,green,blue,down,incong,,,,,3.0,11.0,47.0,7.0,,,130.7871862979955,None,down,1.0,0.6717925720149651,130.7871862979955,None,,,,,,,rev01,1.0,2020_Apr_04_1348,stroopReverse,2020.1.2,59.962180172386205,
132,green,green,down,cong,,,,,4.0,0.0,48.0,6.0,,,131.97229023597902,None,down,1.0,1.5856525090057405,131.97229023597902,None,,,,,,,rev01,1.0,2020_Apr_04_1348,stroopReverse,2020.1.2,59.962180172386205,
133,green,blue,down,incong,,,,,4.0,1.0,49.0,7.0,,,134.0558762769797,None,down,1.0,0.6620461099955719,134.0558762769797,None,,,,,,,rev01,1.0,2020_Apr_04_1348,stroopReverse,2020.1.2,59.962180172386205,
134,red,red,left,cong,,,,,4.0,2.0,50.0,0.0,,,135.22116484298022,None,left,1.0,0.5106415910122449,135.22116484298022,None,,,,,,,rev01,1.0,2020_Apr_04_1348,stroopReverse,2020.1.2,59.962180172386205,
135,blue,blue,right,cong,,,,,4.0,3.0,51.0,10.0,,,136.23808337099035,None,right,1.0,0.5068136290065013,136.23808337099035,None,,,,,,,rev01,1.0,2020_Apr_04_1348,stroopReverse,2020.1.2,59.962180172386205,
136,blue,green,right,incong,,,,,4.0,4.0,52.0,9.0,,,137.25561895198192,None,right,1.0,0.7180346959794406,137.25561895198192,None,,,,,,,rev01,1.0,2020_Apr_04_1348,stroopReverse,2020.1.2,59.962180172386205,
137,blue,red,right,incong,,,,,4.0,5.0,53.0,8.0,,,138.48937756198575,None,right,1.0,0.632384765020106,138.48937756198575,None,,,,,,,rev01,1.0,2020_Apr_04_1348,stroopReverse,2020.1.2,59.962180172386205,
138,red,red,left,cong,,,,,4.0,6.0,54.0,1.0,,,139.6212474149943,None,left,1.0,0.5273605230031535,139.6212474149943,None,,,,,,,rev01,1.0,2020_Apr_04_1348,stroopReverse,2020.1.2,59.962180172386205,
139,green,green,down,cong,,,,,4.0,7.0,55.0,5.0,,,140.65601141398656,None,down,1.0,1.4246155610017013,140.65601141398656,None,,,,,,,rev01,1.0,2020_Apr_04_1348,stroopReverse,2020.1.2,59.962180172386205,
140,green,red,down,incong,,,,,4.0,8.0,56.0,4.0,,,142.58885219300282,None,down,1.0,0.5057875319907907,142.58885219300282,None,,,,,,,rev01,1.0,2020_Apr_04_1348,stroopReverse,2020.1.2,59.962180172386205,
141,red,green,left,incong,,,,,4.0,9.0,57.0,2.0,,,143.60360671099625,None,left,1.0,1.1740338410018012,143.60360671099625,None,,,,,,,rev01,1.0,2020_Apr_04_1348,stroopReverse,2020.1.2,59.962180172386205,
142,blue,blue,right,cong,,,,,4.0,10.0,58.0,11.0,,,145.2890854179859,None,right,1.0,0.8363236559962388,145.2890854179859,None,,,,,,,rev01,1.0,2020_Apr_04_1348,stroopReverse,2020.1.2,59.962180172386205,
143,red,blue,left,incong,,,,,4.0,11.0,59.0,3.0,,,146.63794812597916,None,left,1.0,0.5428533300000709,146.63794812597916,None,,,,,,,rev01,1.0,2020_Apr_04_1348,stroopReverse,2020.1.2,59.962180172386205,
