text,letterColor,corrAns,congruent,practice.thisRepN,practice.thisTrialN,practice.thisN,practice.thisIndex,trials.thisRepN,trials.thisTrialN,trials.thisN,trials.thisIndex,instr1.started,instr1.stopped,word.started,word.stopped,resp.keys,resp.corr,resp.rt,resp.started,resp.stopped,feedback_2.started,feedback_2.stopped,instrText.started,instrText.stopped,thanksText.started,thanksText.stopped,participant,session,date,expName,psychopyVersion,frameRate,
red,red,left,cong,0,0,0,0,,,,,11.56727542099543,None,20.991204202000517,None,left,1,0.8883012259902898,20.991204202000517,None,21.924471145001007,None,,,,,rev01,01,2020_Apr_04_1348,stroopReverse,2020.1.2,59.96218017238621,
green,green,down,cong,0,1,1,5,,,,,,,23.391387968003983,None,down,1,0.5851297050248832,23.391387968003983,None,24.011628420994384,None,,,,,rev01,01,2020_Apr_04_1348,stroopReverse,2020.1.2,59.96218017238621,
blue,red,right,incong,0,2,2,8,,,,,,,25.508145489002345,None,left,0,0.6383601340057794,25.508145489002345,None,26.19207128099515,None,,,,,rev01,01,2020_Apr_04_1348,stroopReverse,2020.1.2,59.96218017238621,
green,red,down,incong,0,3,3,4,,,,,,,27.6716978320037,None,down,1,2.4533159169950522,27.6716978320037,None,30.175363747985102,None,,,,,rev01,01,2020_Apr_04_1348,stroopReverse,2020.1.2,59.96218017238621,
green,blue,down,incong,0,4,4,7,,,,,,,31.64224635300343,None,down,1,3.5837215009960346,31.64224635300343,None,35.262000292976154,None,,,,,rev01,01,2020_Apr_04_1348,stroopReverse,2020.1.2,59.96218017238621,
red,green,left,incong,0,5,5,2,,,,,,,36.75528626400046,None,left,1,1.7383901189896278,36.75528626400046,None,38.54158842298784,None,,,,,rev01,01,2020_Apr_04_1348,stroopReverse,2020.1.2,59.96218017238621,
blue,green,right,incong,0,6,6,9,,,,,,,40.022772294003516,None,right,1,4.118683278997196,40.022772294003516,None,44.17461561100208,None,,,,,rev01,01,2020_Apr_04_1348,stroopReverse,2020.1.2,59.96218017238621,
green,green,down,cong,0,7,7,6,,,,,,,45.63969868098502,None,down,1,4.2048200120043475,45.63969868098502,None,49.87252315800288,None,,,,,rev01,01,2020_Apr_04_1348,stroopReverse,2020.1.2,59.96218017238621,
blue,blue,right,cong,0,8,8,10,,,,,,,51.357784781983355,None,right,1,0.7235426319821272,51.357784781983355,None,52.11228648299584,None,,,,,rev01,01,2020_Apr_04_1348,stroopReverse,2020.1.2,59.96218017238621,
blue,blue,right,cong,0,9,9,11,,,,,,,53.60642219497822,None,right,1,1.259840691986028,53.60642219497822,None,54.89451485397876,None,,,,,rev01,01,2020_Apr_04_1348,stroopReverse,2020.1.2,59.96218017238621,
red,red,left,cong,0,10,10,1,,,,,,,56.38863422500435,None,left,1,0.6123855920159258,56.38863422500435,None,57.02175258399802,None,,,,,rev01,01,2020_Apr_04_1348,stroopReverse,2020.1.2,59.96218017238621,
red,blue,left,incong,0,11,11,3,,,,,,,58.50720237698988,None,right,0,1.0150315729842987,58.50720237698988,None,59.543416620988864,None,,,,,rev01,01,2020_Apr_04_1348,stroopReverse,2020.1.2,59.96218017238621,
red,green,left,incong,,,,,0,0,0,2,,,68.75806212599855,None,left,1,2.800622126000235,68.75806212599855,None,,,60.59131506198901,None,,,rev01,01,2020_Apr_04_1348,stroopReverse,2020.1.2,59.96218017238621,
green,blue,down,incong,,,,,0,1,1,7,,,72.0716437639785,None,down,1,1.3180964460188989,72.0716437639785,None,,,,,,,rev01,01,2020_Apr_04_1348,stroopReverse,2020.1.2,59.96218017238621,
blue,red,right,incong,,,,,0,2,2,8,,,73.88938332599355,None,right,1,1.156269484985387,73.88938332599355,None,,,,,,,rev01,01,2020_Apr_04_1348,stroopReverse,2020.1.2,59.96218017238621,
blue,blue,right,cong,,,,,0,3,3,10,,,75.55683974799467,None,right,1,0.9646622500149533,75.55683974799467,None,,,,,,,rev01,01,2020_Apr_04_1348,stroopReverse,2020.1.2,59.96218017238621,
blue,green,right,incong,,,,,0,4,4,9,,,77.0237330539967,None,right,1,0.521938000980299,77.0237330539967,None,,,,,,,rev01,01,2020_Apr_04_1348,stroopReverse,2020.1.2,59.96218017238621,
green,green,down,cong,,,,,0,5,5,5,,,78.05624792000162,None,down,1,0.5861614810128231,78.05624792000162,None,,,,,,,rev01,01,2020_Apr_04_1348,stroopReverse,2020.1.2,59.96218017238621,
blue,blue,right,cong,,,,,0,6,6,11,,,79.1553590989788,None,right,1,0.8460352160036564,79.1553590989788,None,,,,,,,rev01,01,2020_Apr_04_1348,stroopReverse,2020.1.2,59.96218017238621,
red,red,left,cong,,,,,0,7,7,0,,,80.50474984900211,None,left,1,1.1318092069996055,80.50474984900211,None,,,,,,,rev01,01,2020_Apr_04_1348,stroopReverse,2020.1.2,59.96218017238621,
red,red,left,cong,,,,,0,8,8,1,,,82.13855298998533,None,left,1,0.46075997600564733,82.13855298998533,None,,,,,,,rev01,01,2020_Apr_04_1348,stroopReverse,2020.1.2,59.96218017238621,
green,red,down,incong,,,,,0,9,9,4,,,83.10719056599191,None,down,1,1.136177028005477,83.10719056599191,None,,,,,,,rev01,01,2020_Apr_04_1348,stroopReverse,2020.1.2,59.96218017238621,
red,blue,left,incong,,,,,0,10,10,3,,,84.75520543998573,None,right,0,0.6832126530061942,84.75520543998573,None,,,,,,,rev01,01,2020_Apr_04_1348,stroopReverse,2020.1.2,59.96218017238621,
green,green,down,cong,,,,,0,11,11,6,,,85.94033363700146,None,down,1,0.9789737469982356,85.94033363700146,None,,,,,,,rev01,01,2020_Apr_04_1348,stroopReverse,2020.1.2,59.96218017238621,
blue,green,right,incong,,,,,1,0,12,9,,,87.42455365500064,None,right,1,1.8995601499918848,87.42455365500064,None,,,,,,,rev01,01,2020_Apr_04_1348,stroopReverse,2020.1.2,59.96218017238621,
blue,blue,right,cong,,,,,1,1,13,10,,,89.83991799299838,None,right,1,0.7053424600162543,89.83991799299838,None,,,,,,,rev01,01,2020_Apr_04_1348,stroopReverse,2020.1.2,59.96218017238621,
blue,blue,right,cong,,,,,1,2,14,11,,,91.05609768099384,None,right,1,0.4349684540065937,91.05609768099384,None,,,,,,,rev01,01,2020_Apr_04_1348,stroopReverse,2020.1.2,59.96218017238621,
red,red,left,cong,,,,,1,3,15,0,,,92.00699844097835,None,left,1,0.5349852469807956,92.00699844097835,None,,,,,,,rev01,01,2020_Apr_04_1348,stroopReverse,2020.1.2,59.96218017238621,
green,red,down,incong,,,,,1,4,16,4,,,93.05709687198396,None,down,1,0.7768694320111535,93.05709687198396,None,,,,,,,rev01,01,2020_Apr_04_1348,stroopReverse,2020.1.2,59.96218017238621,
red,blue,left,incong,,,,,1,5,17,3,,,94.33886446399265,None,left,1,0.8439155439846218,94.33886446399265,None,,,,,,,rev01,01,2020_Apr_04_1348,stroopReverse,2020.1.2,59.96218017238621,
red,red,left,cong,,,,,1,6,18,1,,,95.6897805579938,None,left,1,0.6190940469969064,95.6897805579938,None,,,,,,,rev01,01,2020_Apr_04_1348,stroopReverse,2020.1.2,59.96218017238621,
green,blue,down,incong,,,,,1,7,19,7,,,96.82248062398867,None,down,1,1.0983401130069979,96.82248062398867,None,,,,,,,rev01,01,2020_Apr_04_1348,stroopReverse,2020.1.2,59.96218017238621,
green,green,down,cong,,,,,1,8,20,5,,,98.42294663799112,None,down,1,0.7170230879855808,98.42294663799112,None,,,,,,,rev01,01,2020_Apr_04_1348,stroopReverse,2020.1.2,59.96218017238621,
green,green,down,cong,,,,,1,9,21,6,,,99.64098308698158,None,down,1,0.45784670501598157,99.64098308698158,None,,,,,,,rev01,01,2020_Apr_04_1348,stroopReverse,2020.1.2,59.96218017238621,
red,green,left,incong,,,,,1,10,22,2,,,100.60575159898144,None,left,1,0.8921773780020885,100.60575159898144,None,,,,,,,rev01,01,2020_Apr_04_1348,stroopReverse,2020.1.2,59.96218017238621,
blue,red,right,incong,,,,,1,11,23,8,,,102.00518023400218,None,left,0,2.21362890698947,102.00518023400218,None,,,,,,,rev01,01,2020_Apr_04_1348,stroopReverse,2020.1.2,59.96218017238621,
blue,blue,right,cong,,,,,2,0,24,10,,,104.72159425899736,None,right,1,0.8460096689814236,104.72159425899736,None,,,,,,,rev01,01,2020_Apr_04_1348,stroopReverse,2020.1.2,59.96218017238621,
blue,green,right,incong,,,,,2,1,25,9,,,106.07275217198185,None,right,1,0.8299278990016319,106.07275217198185,None,,,,,,,rev01,01,2020_Apr_04_1348,stroopReverse,2020.1.2,59.96218017238621,
green,red,down,incong,,,,,2,2,26,4,,,107.40480877200025,None,down,1,0.8669038180087227,107.40480877200025,None,,,,,,,rev01,01,2020_Apr_04_1348,stroopReverse,2020.1.2,59.96218017238621,
red,blue,left,incong,,,,,2,3,27,3,,,108.77124303099117,None,left,1,0.8574660500162281,108.77124303099117,None,,,,,,,rev01,01,2020_Apr_04_1348,stroopReverse,2020.1.2,59.96218017238621,
blue,blue,right,cong,,,,,2,4,28,11,,,110.13927796500502,None,right,1,0.8591740170086268,110.13927796500502,None,,,,,,,rev01,01,2020_Apr_04_1348,stroopReverse,2020.1.2,59.96218017238621,
red,red,left,cong,,,,,2,5,29,1,,,111.50419519899879,None,left,1,0.4752571269928012,111.50419519899879,None,,,,,,,rev01,01,2020_Apr_04_1348,stroopReverse,2020.1.2,59.96218017238621,
green,blue,down,incong,,,,,2,6,30,7,,,112.48783708497649,None,down,1,0.704532173986081,112.48783708497649,None,,,,,,,rev01,01,2020_Apr_04_1348,stroopReverse,2020.1.2,59.96218017238621,
green,green,down,cong,,,,,2,7,31,6,,,113.70615626798826,None,down,1,0.47235439901123755,113.70615626798826,None,,,,,,,rev01,01,2020_Apr_04_1348,stroopReverse,2020.1.2,59.96218017238621,
green,green,down,cong,,,,,2,8,32,5,,,114.68975308499648,None,down,1,0.36254585898132063,114.68975308499648,None,,,,,,,rev01,01,2020_Apr_04_1348,stroopReverse,2020.1.2,59.96218017238621,
red,red,left,cong,,,,,2,9,33,0,,,115.55468604300404,None,left,1,0.47072456299792975,115.55468604300404,None,,,,,,,rev01,01,2020_Apr_04_1348,stroopReverse,2020.1.2,59.96218017238621,
red,green,left,incong,,,,,2,10,34,2,,,116.53934614398167,None,left,1,0.5460241590044461,116.53934614398167,None,,,,,,,rev01,01,2020_Apr_04_1348,stroopReverse,2020.1.2,59.96218017238621,
blue,red,right,incong,,,,,2,11,35,8,,,117.59123208897654,None,right,1,0.6941401450021658,117.59123208897654,None,,,,,,,rev01,01,2020_Apr_04_1348,stroopReverse,2020.1.2,59.96218017238621,
red,green,left,incong,,,,,3,0,36,2,,,118.78914170397911,None,left,1,0.5800768950139172,118.78914170397911,None,,,,,,,rev01,01,2020_Apr_04_1348,stroopReverse,2020.1.2,59.96218017238621,
red,red,left,cong,,,,,3,1,37,0,,,119.87315202699392,None,left,1,0.46335552202071995,119.87315202699392,None,,,,,,,rev01,01,2020_Apr_04_1348,stroopReverse,2020.1.2,59.96218017238621,
blue,blue,right,cong,,,,,3,2,38,11,,,120.83969445899129,None,right,1,0.5615497670078184,120.83969445899129,None,,,,,,,rev01,01,2020_Apr_04_1348,stroopReverse,2020.1.2,59.96218017238621,
red,blue,left,incong,,,,,3,3,39,3,,,121.90410757900099,None,left,1,0.5781570870021824,121.90410757900099,None,,,,,,,rev01,01,2020_Apr_04_1348,stroopReverse,2020.1.2,59.96218017238621,
green,red,down,incong,,,,,3,4,40,4,,,122.98671609998564,None,down,1,0.605530852015363,122.98671609998564,None,,,,,,,rev01,01,2020_Apr_04_1348,stroopReverse,2020.1.2,59.96218017238621,
blue,red,right,incong,,,,,3,5,41,8,,,124.10783224998158,None,right,1,0.5394110350171104,124.10783224998158,None,,,,,,,rev01,01,2020_Apr_04_1348,stroopReverse,2020.1.2,59.96218017238621,
green,green,down,cong,,,,,3,6,42,5,,,125.15402680399711,None,down,1,0.6971096030029003,125.15402680399711,None,,,,,,,rev01,01,2020_Apr_04_1348,stroopReverse,2020.1.2,59.96218017238621,
green,green,down,cong,,,,,3,7,43,6,,,126.35552896099398,None,down,1,0.4864533620129805,126.35552896099398,None,,,,,,,rev01,01,2020_Apr_04_1348,stroopReverse,2020.1.2,59.96218017238621,
red,red,left,cong,,,,,3,8,44,1,,,127.35402378899744,None,left,1,0.46010866700089537,127.35402378899744,None,,,,,,,rev01,01,2020_Apr_04_1348,stroopReverse,2020.1.2,59.96218017238621,
blue,green,right,incong,,,,,3,9,45,9,,,128.3227777479915,None,right,1,0.7472928729839623,128.3227777479915,None,,,,,,,rev01,01,2020_Apr_04_1348,stroopReverse,2020.1.2,59.96218017238621,
blue,blue,right,cong,,,,,3,10,46,10,,,129.57239302797825,None,right,1,0.7057253920065705,129.57239302797825,None,,,,,,,rev01,01,2020_Apr_04_1348,stroopReverse,2020.1.2,59.96218017238621,
green,blue,down,incong,,,,,3,11,47,7,,,130.7871862979955,None,down,1,0.6717925720149651,130.7871862979955,None,,,,,,,rev01,01,2020_Apr_04_1348,stroopReverse,2020.1.2,59.96218017238621,
green,green,down,cong,,,,,4,0,48,6,,,131.97229023597902,None,down,1,1.5856525090057403,131.97229023597902,None,,,,,,,rev01,01,2020_Apr_04_1348,stroopReverse,2020.1.2,59.96218017238621,
green,blue,down,incong,,,,,4,1,49,7,,,134.0558762769797,None,down,1,0.6620461099955719,134.0558762769797,None,,,,,,,rev01,01,2020_Apr_04_1348,stroopReverse,2020.1.2,59.96218017238621,
red,red,left,cong,,,,,4,2,50,0,,,135.22116484298022,None,left,1,0.510641591012245,135.22116484298022,None,,,,,,,rev01,01,2020_Apr_04_1348,stroopReverse,2020.1.2,59.96218017238621,
blue,blue,right,cong,,,,,4,3,51,10,,,136.23808337099035,None,right,1,0.5068136290065013,136.23808337099035,None,,,,,,,rev01,01,2020_Apr_04_1348,stroopReverse,2020.1.2,59.96218017238621,
blue,green,right,incong,,,,,4,4,52,9,,,137.2556189519819,None,right,1,0.7180346959794406,137.2556189519819,None,,,,,,,rev01,01,2020_Apr_04_1348,stroopReverse,2020.1.2,59.96218017238621,
blue,red,right,incong,,,,,4,5,53,8,,,138.48937756198575,None,right,1,0.632384765020106,138.48937756198575,None,,,,,,,rev01,01,2020_Apr_04_1348,stroopReverse,2020.1.2,59.96218017238621,
red,red,left,cong,,,,,4,6,54,1,,,139.6212474149943,None,left,1,0.5273605230031535,139.6212474149943,None,,,,,,,rev01,01,2020_Apr_04_1348,stroopReverse,2020.1.2,59.96218017238621,
green,green,down,cong,,,,,4,7,55,5,,,140.65601141398656,None,down,1,1.4246155610017013,140.65601141398656,None,,,,,,,rev01,01,2020_Apr_04_1348,stroopReverse,2020.1.2,59.96218017238621,
green,red,down,incong,,,,,4,8,56,4,,,142.58885219300282,None,down,1,0.5057875319907907,142.58885219300282,None,,,,,,,rev01,01,2020_Apr_04_1348,stroopReverse,2020.1.2,59.96218017238621,
red,green,left,incong,,,,,4,9,57,2,,,143.60360671099625,None,left,1,1.1740338410018012,143.60360671099625,None,,,,,,,rev01,01,2020_Apr_04_1348,stroopReverse,2020.1.2,59.96218017238621,
blue,blue,right,cong,,,,,4,10,58,11,,,145.28908541798592,None,right,1,0.8363236559962388,145.28908541798592,None,,,,,,,rev01,01,2020_Apr_04_1348,stroopReverse,2020.1.2,59.96218017238621,
red,blue,left,incong,,,,,4,11,59,3,,,146.63794812597916,None,left,1,0.5428533300000709,146.63794812597916,None,,,,,,,rev01,01,2020_Apr_04_1348,stroopReverse,2020.1.2,59.96218017238621,
,,,,,,,,,,,,,,,,,,,,,,,,,147.26290217897622,None,,,,,,,
