left,right,correctAns,trials.thisRepN,trials.thisTrialN,trials.thisN,trials.thisIndex,key_resp_2.keys,key_resp_2.rt,key_resp_2.started,key_resp_2.stopped,letter_left.started,letter_left.stopped,letter_right.started,letter_right.stopped,key_resp.keys,key_resp.corr,key_resp.rt,ISI.started,ISI.stopped,participant,session,date,expName,psychopyVersion,frameRate,
,,,,,,,down,2.8342677380423993,16.784855398000218,None,,,,,,,,,,aquaman,001,2020_Apr_10_1222,letters,2020.1.2,60.04034051030554,
B,A,right,0,0,0,1,,,,,19.768312065978535,None,19.768312065978535,None,right,1,0.5566353090107441,0.003808426612522453,None,aquaman,001,2020_Apr_10_1222,letters,2020.1.2,60.04034051030554,
A,B,left,0,1,1,0,,,,,20.469039020012133,None,20.469039020012133,None,left,1,0.38004745700163767,0.010504742676857859,None,aquaman,001,2020_Apr_10_1222,letters,2020.1.2,60.04034051030554,
A,B,left,1,0,2,0,,,,,20.987581080989912,None,20.987581080989912,None,left,1,0.35942567797610536,0.012881690636277199,None,aquaman,001,2020_Apr_10_1222,letters,2020.1.2,60.04034051030554,
B,A,right,1,1,3,1,,,,,21.48572279099608,None,21.48572279099608,None,right,1,0.3592851390130818,0.010715956625062972,None,aquaman,001,2020_Apr_10_1222,letters,2020.1.2,60.04034051030554,
A,B,left,2,0,4,0,,,,,21.986144658003468,None,21.986144658003468,None,left,1,0.3828134299837984,0.010834615677595139,None,aquaman,001,2020_Apr_10_1222,letters,2020.1.2,60.04034051030554,
A,B,left,2,1,5,0,,,,,22.518545117985923,None,22.518545117985923,None,left,1,0.39046244899509475,0.01300325762713328,None,aquaman,001,2020_Apr_10_1222,letters,2020.1.2,60.04034051030554,
A,B,left,3,0,6,0,,,,,23.05306310998276,None,23.05306310998276,None,left,1,0.3449921060237102,0.013010610651690513,None,aquaman,001,2020_Apr_10_1222,letters,2020.1.2,60.04034051030554,
A,B,left,3,1,7,0,,,,,23.53550699999323,None,23.53550699999323,None,left,1,0.4024697180138901,0.01250413665547967,None,aquaman,001,2020_Apr_10_1222,letters,2020.1.2,60.04034051030554,
B,A,right,4,0,8,1,,,,,24.085801178007387,None,24.085801178007387,None,right,1,0.35010125197004527,0.010631449637003243,None,aquaman,001,2020_Apr_10_1222,letters,2020.1.2,60.04034051030554,
A,B,left,4,1,9,0,,,,,24.56926649797242,None,24.56926649797242,None,left,1,0.3937373299850151,0.009798008599318564,None,aquaman,001,2020_Apr_10_1222,letters,2020.1.2,60.04034051030554,
A,B,left,5,0,10,0,,,,,25.102426314959303,None,25.102426314959303,None,left,1,0.36749562999466434,0.011608412605710328,None,aquaman,001,2020_Apr_10_1222,letters,2020.1.2,60.04034051030554,
B,A,right,5,1,11,1,,,,,25.619511514960323,None,25.619511514960323,None,right,1,0.3754589720047079,0.010634999605827034,None,aquaman,001,2020_Apr_10_1222,letters,2020.1.2,60.04034051030554,
A,B,left,6,0,12,0,,,,,26.136192323989235,None,26.136192323989235,None,left,1,0.31397498602746055,0.00906279869377613,None,aquaman,001,2020_Apr_10_1222,letters,2020.1.2,60.04034051030554,
A,B,left,6,1,13,0,,,,,26.58580036199419,None,26.58580036199419,None,left,1,0.37524026999017224,0.011478296597488225,None,aquaman,001,2020_Apr_10_1222,letters,2020.1.2,60.04034051030554,
B,A,right,7,0,14,1,,,,,27.102832700009458,None,27.102832700009458,None,right,1,0.3511403280426748,0.009099520568270236,None,aquaman,001,2020_Apr_10_1222,letters,2020.1.2,60.04034051030554,
B,A,right,7,1,15,1,,,,,27.603367108968087,None,27.603367108968087,None,right,1,0.4335704289842397,0.0108197316294536,None,aquaman,001,2020_Apr_10_1222,letters,2020.1.2,60.04034051030554,
A,B,left,8,0,16,0,,,,,28.186273525003344,None,28.186273525003344,None,left,1,0.3627167699742131,0.008156259602401406,None,aquaman,001,2020_Apr_10_1222,letters,2020.1.2,60.04034051030554,
A,B,left,8,1,17,0,,,,,28.687573777977377,None,28.687573777977377,None,left,1,0.4124042939511128,0.011832728690933436,None,aquaman,001,2020_Apr_10_1222,letters,2020.1.2,60.04034051030554,
A,B,left,9,0,18,0,,,,,29.235364435007796,None,29.235364435007796,None,left,1,0.43762871203944087,0.012601549678947777,None,aquaman,001,2020_Apr_10_1222,letters,2020.1.2,60.04034051030554,
A,B,left,9,1,19,0,,,,,29.81919134798227,None,29.81919134798227,None,left,1,0.39261223695939407,0.011714084655977786,None,aquaman,001,2020_Apr_10_1222,letters,2020.1.2,60.04034051030554,
A,B,left,10,0,20,0,,,,,30.35322081897175,None,30.35322081897175,None,left,1,0.3737133890390396,0.012875603628344834,None,aquaman,001,2020_Apr_10_1222,letters,2020.1.2,60.04034051030554,
A,B,left,10,1,21,0,,,,,30.870014234969858,None,30.870014234969858,None,left,1,0.45988380000926554,0.01162132655736059,None,aquaman,001,2020_Apr_10_1222,letters,2020.1.2,60.04034051030554,
A,B,left,11,0,22,0,,,,,31.469470214971807,None,31.469470214971807,None,left,1,0.3743363299872726,0.010664461588021368,None,aquaman,001,2020_Apr_10_1222,letters,2020.1.2,60.04034051030554,
A,B,left,11,1,23,0,,,,,31.986414867977146,None,31.986414867977146,None,left,1,0.40038490801816806,0.010860779671929777,None,aquaman,001,2020_Apr_10_1222,letters,2020.1.2,60.04034051030554,
A,B,left,12,0,24,0,,,,,32.53607390698744,None,32.53607390698744,None,left,1,0.38566664297832176,0.010905152652412653,None,aquaman,001,2020_Apr_10_1222,letters,2020.1.2,60.04034051030554,
B,A,right,12,1,25,1,,,,,33.069787908985745,None,33.069787908985745,None,right,1,0.3791454450110905,0.008732151647564024,None,aquaman,001,2020_Apr_10_1222,letters,2020.1.2,60.04034051030554,
B,A,right,13,0,26,1,,,,,33.58658312400803,None,33.58658312400803,None,right,1,0.4261376499780454,0.01152845862088725,None,aquaman,001,2020_Apr_10_1222,letters,2020.1.2,60.04034051030554,
B,A,right,13,1,27,1,,,,,34.15237273299135,None,34.15237273299135,None,right,1,0.3532808540039696,0.0108461226336658,None,aquaman,001,2020_Apr_10_1222,letters,2020.1.2,60.04034051030554,
A,B,left,14,0,28,0,,,,,34.65372620295966,None,34.65372620295966,None,left,1,0.39908802503487095,0.008263136667665094,None,aquaman,001,2020_Apr_10_1222,letters,2020.1.2,60.04034051030554,
A,B,left,14,1,29,0,,,,,35.187078162969556,None,35.187078162969556,None,left,1,0.42156985198380426,0.010687365662306547,None,aquaman,001,2020_Apr_10_1222,letters,2020.1.2,60.04034051030554,
A,B,left,15,0,30,0,,,,,35.753202288993634,None,35.753202288993634,None,left,1,0.38059087499277666,0.010850384598597884,None,aquaman,001,2020_Apr_10_1222,letters,2020.1.2,60.04034051030554,
A,B,left,15,1,31,0,,,,,36.26948858896503,None,36.26948858896503,None,left,1,0.3733050230075605,0.011425796605180949,None,aquaman,001,2020_Apr_10_1222,letters,2020.1.2,60.04034051030554,
A,B,left,16,0,32,0,,,,,36.78650990797905,None,36.78650990797905,None,left,1,0.46921047603245825,0.010784024663735181,None,aquaman,001,2020_Apr_10_1222,letters,2020.1.2,60.04034051030554,
A,B,left,16,1,33,0,,,,,37.403199060005136,None,37.403199060005136,None,left,1,0.3304557070368901,0.011468555661849678,None,aquaman,001,2020_Apr_10_1222,letters,2020.1.2,60.04034051030554,
B,A,right,17,0,34,1,,,,,37.86955617897911,None,37.86955617897911,None,right,1,0.40904899599263445,0.008695995667949319,None,aquaman,001,2020_Apr_10_1222,letters,2020.1.2,60.04034051030554,
B,A,right,17,1,35,1,,,,,38.418730814009905,None,38.418730814009905,None,right,1,0.3249474280164577,0.011462044552899897,None,aquaman,001,2020_Apr_10_1222,letters,2020.1.2,60.04034051030554,
B,A,right,18,0,36,1,,,,,38.88624704198446,None,38.88624704198446,None,right,1,0.332490237953607,0.010157522629015148,None,aquaman,001,2020_Apr_10_1222,letters,2020.1.2,60.04034051030554,
A,B,left,18,1,37,0,,,,,39.35196088498924,None,39.35196088498924,None,left,1,0.3967257629847154,0.008959782659076154,None,aquaman,001,2020_Apr_10_1222,letters,2020.1.2,60.04034051030554,
A,B,left,19,0,38,0,,,,,39.886360623000655,None,39.886360623000655,None,left,1,0.34925629902863875,0.011031033587642014,None,aquaman,001,2020_Apr_10_1222,letters,2020.1.2,60.04034051030554,
B,A,right,19,1,39,1,,,,,40.38528437097557,None,40.38528437097557,None,right,1,0.3793504839995876,0.007860033656470478,None,aquaman,001,2020_Apr_10_1222,letters,2020.1.2,60.04034051030554,
B,A,right,20,0,40,1,,,,,40.90182530897437,None,40.90182530897437,None,right,1,0.4187027669977397,0.011772147670853883,None,aquaman,001,2020_Apr_10_1222,letters,2020.1.2,60.04034051030554,
B,A,right,20,1,41,1,,,,,41.4698749280069,None,41.4698749280069,None,right,1,0.3227920129429549,0.01051985565572977,None,aquaman,001,2020_Apr_10_1222,letters,2020.1.2,60.04034051030554,
A,B,left,21,0,42,0,,,,,41.93501724896487,None,41.93501724896487,None,left,1,0.35563659900799394,0.00873749959282577,None,aquaman,001,2020_Apr_10_1222,letters,2020.1.2,60.04034051030554,
B,A,right,21,1,43,1,,,,,42.43569714698242,None,42.43569714698242,None,right,1,0.41077961295377463,0.007927679631393403,None,aquaman,001,2020_Apr_10_1222,letters,2020.1.2,60.04034051030554,
B,A,right,22,0,44,1,,,,,42.98669794999296,None,42.98669794999296,None,right,1,0.4548613199731335,0.011788304662331939,None,aquaman,001,2020_Apr_10_1222,letters,2020.1.2,60.04034051030554,
B,A,right,22,1,45,1,,,,,43.58597468701191,None,43.58597468701191,None,right,1,0.32754911901429296,0.010870943602640182,None,aquaman,001,2020_Apr_10_1222,letters,2020.1.2,60.04034051030554,
B,A,right,23,0,46,1,,,,,44.0532729710103,None,44.0532729710103,None,right,1,0.32929840800352395,0.011608900618739426,None,aquaman,001,2020_Apr_10_1222,letters,2020.1.2,60.04034051030554,
B,A,right,23,1,47,1,,,,,44.51914970995858,None,44.51914970995858,None,right,1,0.3743604750488885,0.011593466624617577,None,aquaman,001,2020_Apr_10_1222,letters,2020.1.2,60.04034051030554,
B,A,right,24,0,48,1,,,,,45.03605877200607,None,45.03605877200607,None,right,1,0.3164129939978011,0.011094269575551152,None,aquaman,001,2020_Apr_10_1222,letters,2020.1.2,60.04034051030554,
B,A,right,24,1,49,1,,,,,45.48581177397864,None,45.48581177397864,None,right,1,0.3116565849632025,0.011241291649639606,None,aquaman,001,2020_Apr_10_1222,letters,2020.1.2,60.04034051030554,
B,A,right,25,0,50,1,,,,,45.93592668196652,None,45.93592668196652,None,right,1,0.33445102197583765,0.011230866599362344,None,aquaman,001,2020_Apr_10_1222,letters,2020.1.2,60.04034051030554,
A,B,left,25,1,51,0,,,,,46.41951911599608,None,46.41951911599608,None,right,0,0.4337766660028137,0.008514295623172075,None,aquaman,001,2020_Apr_10_1222,letters,2020.1.2,60.04034051030554,
B,A,right,26,0,52,1,,,,,47.00162500597071,None,47.00162500597071,None,left,0,0.24166188400704414,0.009780426567886025,None,aquaman,001,2020_Apr_10_1222,letters,2020.1.2,60.04034051030554,
B,A,right,26,1,53,1,,,,,47.38491952896584,None,47.38491952896584,None,right,1,0.3493391220108606,0.013086793653201312,None,aquaman,001,2020_Apr_10_1222,letters,2020.1.2,60.04034051030554,
A,B,left,27,0,54,0,,,,,47.868368253984954,None,47.868368253984954,None,left,1,0.4078867780044675,0.008703486586455256,None,aquaman,001,2020_Apr_10_1222,letters,2020.1.2,60.04034051030554,
B,A,right,27,1,55,1,,,,,48.41855838301126,None,48.41855838301126,None,right,1,0.36068795702885836,0.009329485648777336,None,aquaman,001,2020_Apr_10_1222,letters,2020.1.2,60.04034051030554,
A,B,left,28,0,56,0,,,,,48.91908457595855,None,48.91908457595855,None,left,1,0.39823135698679835,0.009289273642934859,None,aquaman,001,2020_Apr_10_1222,letters,2020.1.2,60.04034051030554,
B,A,right,28,1,57,1,,,,,49.451592636993155,None,49.451592636993155,None,right,1,0.344613199995365,0.009098397626075894,None,aquaman,001,2020_Apr_10_1222,letters,2020.1.2,60.04034051030554,
A,B,left,29,0,58,0,,,,,49.93509119399823,None,49.93509119399823,None,left,1,0.4081040680175647,0.008731960610020906,None,aquaman,001,2020_Apr_10_1222,letters,2020.1.2,60.04034051030554,
A,B,left,29,1,59,0,,,,,50.4851529810112,None,50.4851529810112,None,left,1,0.44402251701103523,0.011838384671136737,None,aquaman,001,2020_Apr_10_1222,letters,2020.1.2,60.04034051030554,
A,B,left,30,0,60,0,,,,,51.06808361498406,None,51.06808361498406,None,left,1,0.29303405300015584,0.01051928463857621,None,aquaman,001,2020_Apr_10_1222,letters,2020.1.2,60.04034051030554,
A,B,left,30,1,61,0,,,,,51.50378390500555,None,51.50378390500555,None,left,1,0.3273553110193461,0.011808441660832614,None,aquaman,001,2020_Apr_10_1222,letters,2020.1.2,60.04034051030554,
B,A,right,31,0,62,1,,,,,51.968304188980255,None,51.968304188980255,None,left,0,0.2887859789771028,0.004770163679495454,None,aquaman,001,2020_Apr_10_1222,letters,2020.1.2,60.04034051030554,
B,A,right,31,1,63,1,,,,,52.401994655956514,None,52.401994655956514,None,right,1,0.23611659300513566,0.013089476618915796,None,aquaman,001,2020_Apr_10_1222,letters,2020.1.2,60.04034051030554,
A,B,left,32,0,64,0,,,,,52.78580718796002,None,52.78580718796002,None,left,1,0.40229047695174813,0.011203913658391684,None,aquaman,001,2020_Apr_10_1222,letters,2020.1.2,60.04034051030554,
A,B,left,32,1,65,0,,,,,53.33489081898006,None,53.33489081898006,None,left,1,0.4274981479975395,0.01308656664332375,None,aquaman,001,2020_Apr_10_1222,letters,2020.1.2,60.04034051030554,
A,B,left,33,0,66,0,,,,,53.902386761968955,None,53.902386761968955,None,left,1,0.37366613699123263,0.013044818653725088,None,aquaman,001,2020_Apr_10_1222,letters,2020.1.2,60.04034051030554,
A,B,left,33,1,67,0,,,,,54.41821189399343,None,54.41821189399343,None,left,1,0.4218331649899483,0.010612996702548116,None,aquaman,001,2020_Apr_10_1222,letters,2020.1.2,60.04034051030554,
B,A,right,34,0,68,1,,,,,54.98433970299084,None,54.98433970299084,None,right,1,0.3836715920479037,0.011265648645348847,None,aquaman,001,2020_Apr_10_1222,letters,2020.1.2,60.04034051030554,
A,B,left,34,1,69,0,,,,,55.49864013097249,None,55.49864013097249,None,left,1,0.39238364197080955,0.011018832621630281,None,aquaman,001,2020_Apr_10_1222,letters,2020.1.2,60.04034051030554,
B,A,right,35,0,70,1,,,,,56.03473257395672,None,56.03473257395672,None,right,1,0.3812480350024998,0.0110444626188837,None,aquaman,001,2020_Apr_10_1222,letters,2020.1.2,60.04034051030554,
B,A,right,35,1,71,1,,,,,56.5529614299885,None,56.5529614299885,None,right,1,0.4559992690337822,0.01200176461134106,None,aquaman,001,2020_Apr_10_1222,letters,2020.1.2,60.04034051030554,
B,A,right,36,0,72,1,,,,,57.15306098398287,None,57.15306098398287,None,right,1,0.3629081880208105,0.013133734639268368,None,aquaman,001,2020_Apr_10_1222,letters,2020.1.2,60.04034051030554,
B,A,right,36,1,73,1,,,,,57.66957135300618,None,57.66957135300618,None,right,1,0.36134880100144073,0.012716392637230456,None,aquaman,001,2020_Apr_10_1222,letters,2020.1.2,60.04034051030554,
A,B,left,37,0,74,0,,,,,58.16826734697679,None,58.16826734697679,None,left,1,0.40764425101224333,0.00908500561490655,None,aquaman,001,2020_Apr_10_1222,letters,2020.1.2,60.04034051030554,
A,B,left,37,1,75,0,,,,,58.71845203801058,None,58.71845203801058,None,left,1,0.670438526023645,0.010130888666026294,None,aquaman,001,2020_Apr_10_1222,letters,2020.1.2,60.04034051030554,
B,A,right,38,0,76,1,,,,,59.53483073099051,None,59.53483073099051,None,right,1,0.38506127696018666,0.011393011664040387,None,aquaman,001,2020_Apr_10_1222,letters,2020.1.2,60.04034051030554,
A,B,left,38,1,77,0,,,,,60.068549531977624,None,60.068549531977624,None,left,1,0.3883296750136651,0.010250453604385257,None,aquaman,001,2020_Apr_10_1222,letters,2020.1.2,60.04034051030554,
A,B,left,39,0,78,0,,,,,60.60191556200152,None,60.60191556200152,None,left,1,0.3799451860249974,0.01227836060570553,None,aquaman,001,2020_Apr_10_1222,letters,2020.1.2,60.04034051030554,
B,A,right,39,1,79,1,,,,,61.11840293899877,None,61.11840293899877,None,right,1,0.3734051879728213,0.010934552701655775,None,aquaman,001,2020_Apr_10_1222,letters,2020.1.2,60.04034051030554,
B,A,right,40,0,80,1,,,,,61.635066409013234,None,61.635066409013234,None,right,1,0.47372307698242366,0.012977457605302334,None,aquaman,001,2020_Apr_10_1222,letters,2020.1.2,60.04034051030554,
B,A,right,40,1,81,1,,,,,62.252205904980656,None,62.252205904980656,None,right,1,0.3225946720340289,0.013112685643136501,None,aquaman,001,2020_Apr_10_1222,letters,2020.1.2,60.04034051030554,
B,A,right,41,0,82,1,,,,,62.718309369985946,None,62.718309369985946,None,right,1,0.35549421899486333,0.013029306661337614,None,aquaman,001,2020_Apr_10_1222,letters,2020.1.2,60.04034051030554,
A,B,left,41,1,83,0,,,,,63.21873595198849,None,63.21873595198849,None,left,1,0.36104027699911967,0.011060735618229955,None,aquaman,001,2020_Apr_10_1222,letters,2020.1.2,60.04034051030554,
B,A,right,42,0,84,1,,,,,63.71844550897367,None,63.71844550897367,None,right,1,0.39429687504889444,0.010868662677239627,None,aquaman,001,2020_Apr_10_1222,letters,2020.1.2,60.04034051030554,
A,B,left,42,1,85,0,,,,,64.25208718597423,None,64.25208718597423,None,left,1,0.37167486804537475,0.011030443652998656,None,aquaman,001,2020_Apr_10_1222,letters,2020.1.2,60.04034051030554,
A,B,left,43,0,86,0,,,,,64.76829378301045,None,64.76829378301045,None,left,1,0.3744337059906684,0.013127214624546468,None,aquaman,001,2020_Apr_10_1222,letters,2020.1.2,60.04034051030554,
A,B,left,43,1,87,0,,,,,65.28490959695773,None,65.28490959695773,None,left,1,0.4918178600491956,0.013016822573263198,None,aquaman,001,2020_Apr_10_1222,letters,2020.1.2,60.04034051030554,
B,A,right,44,0,88,1,,,,,65.91844546498032,None,65.91844546498032,None,right,1,0.39224547997582704,0.01099478657124564,None,aquaman,001,2020_Apr_10_1222,letters,2020.1.2,60.04034051030554,
B,A,right,44,1,89,1,,,,,66.45192102401052,None,66.45192102401052,None,right,1,0.39274139603367075,0.013112257642205805,None,aquaman,001,2020_Apr_10_1222,letters,2020.1.2,60.04034051030554,
B,A,right,45,0,90,1,,,,,66.98655908898218,None,66.98655908898218,None,right,1,0.3520997970481403,0.01306209567701444,None,aquaman,001,2020_Apr_10_1222,letters,2020.1.2,60.04034051030554,
B,A,right,45,1,91,1,,,,,67.48498559801374,None,67.48498559801374,None,right,1,0.3546816559974104,0.010137535631656647,None,aquaman,001,2020_Apr_10_1222,letters,2020.1.2,60.04034051030554,
A,B,left,46,0,92,0,,,,,67.98427775496384,None,67.98427775496384,None,left,1,0.3513609630172141,0.011070300592109561,None,aquaman,001,2020_Apr_10_1222,letters,2020.1.2,60.04034051030554,
A,B,left,46,1,93,0,,,,,68.48522841499653,None,68.48522841499653,None,left,1,0.33439003996318206,0.01300441165221855,None,aquaman,001,2020_Apr_10_1222,letters,2020.1.2,60.04034051030554,
A,B,left,47,0,94,0,,,,,68.96853975899285,None,68.96853975899285,None,left,1,0.3460805519716814,0.013097382616251707,None,aquaman,001,2020_Apr_10_1222,letters,2020.1.2,60.04034051030554,
B,A,right,47,1,95,1,,,,,69.45146596000995,None,69.45146596000995,None,right,1,0.3562498310348019,0.010606566618662328,None,aquaman,001,2020_Apr_10_1222,letters,2020.1.2,60.04034051030554,
A,B,left,48,0,96,0,,,,,69.95163372496609,None,69.95163372496609,None,left,1,0.37195642496226355,0.011048828659113497,None,aquaman,001,2020_Apr_10_1222,letters,2020.1.2,60.04034051030554,
B,A,right,48,1,97,1,,,,,70.4680627050111,None,70.4680627050111,None,right,1,0.35747005697339773,0.011041266669053584,None,aquaman,001,2020_Apr_10_1222,letters,2020.1.2,60.04034051030554,
A,B,left,49,0,98,0,,,,,70.96822419000091,None,70.96822419000091,None,left,1,0.36733720399206504,0.011076779628638178,None,aquaman,001,2020_Apr_10_1222,letters,2020.1.2,60.04034051030554,
B,A,right,49,1,99,1,,,,,71.48419016198022,None,71.48419016198022,None,right,1,0.38633217196911573,0.011001756589394063,None,aquaman,001,2020_Apr_10_1222,letters,2020.1.2,60.04034051030554,
A,B,left,50,0,100,0,,,,,72.01797595899552,None,72.01797595899552,None,left,1,0.4005965829710476,0.011231732612941414,None,aquaman,001,2020_Apr_10_1222,letters,2020.1.2,60.04034051030554,
A,B,left,50,1,101,0,,,,,72.56750856799772,None,72.56750856799772,None,left,1,0.6709943959722295,0.013128195656463504,None,aquaman,001,2020_Apr_10_1222,letters,2020.1.2,60.04034051030554,
A,B,left,51,0,102,0,,,,,73.3844726299867,None,73.3844726299867,None,left,1,0.3590446839807555,0.013176216627471149,None,aquaman,001,2020_Apr_10_1222,letters,2020.1.2,60.04034051030554,
B,A,right,51,1,103,1,,,,,73.88515734800603,None,73.88515734800603,None,right,1,0.37231571902520955,0.01105163962347433,None,aquaman,001,2020_Apr_10_1222,letters,2020.1.2,60.04034051030554,
B,A,right,52,0,104,1,,,,,74.4007796709775,None,74.4007796709775,None,right,1,0.4026768390322104,0.01304873765911907,None,aquaman,001,2020_Apr_10_1222,letters,2020.1.2,60.04034051030554,
B,A,right,52,1,105,1,,,,,74.95165463601006,None,74.95165463601006,None,right,1,0.3607839649775997,0.013003673637285829,None,aquaman,001,2020_Apr_10_1222,letters,2020.1.2,60.04034051030554,
A,B,left,53,0,106,0,,,,,75.45157056499738,None,75.45157056499738,None,left,1,0.3788436719914898,0.011089887644629925,None,aquaman,001,2020_Apr_10_1222,letters,2020.1.2,60.04034051030554,
A,B,left,53,1,107,0,,,,,75.96798222296638,None,75.96798222296638,None,left,1,0.33140774798812345,0.012872903607785702,None,aquaman,001,2020_Apr_10_1222,letters,2020.1.2,60.04034051030554,
A,B,left,54,0,108,0,,,,,76.43493494100403,None,76.43493494100403,None,left,1,0.4414570080116391,0.0130932237370871,None,aquaman,001,2020_Apr_10_1222,letters,2020.1.2,60.04034051030554,
B,A,right,54,1,109,1,,,,,77.01861095597269,None,77.01861095597269,None,right,1,0.4107786840177141,0.009739899542182684,None,aquaman,001,2020_Apr_10_1222,letters,2020.1.2,60.04034051030554,
A,B,left,55,0,110,0,,,,,77.56870061298832,None,77.56870061298832,None,left,1,0.41263958904892206,0.008390533621422946,None,aquaman,001,2020_Apr_10_1222,letters,2020.1.2,60.04034051030554,
B,A,right,55,1,111,1,,,,,78.11834318796173,None,78.11834318796173,None,right,1,0.3572733639739454,0.010501970653422177,None,aquaman,001,2020_Apr_10_1222,letters,2020.1.2,60.04034051030554,
B,A,right,56,0,112,1,,,,,78.6178752699634,None,78.6178752699634,None,left,0,0.2855293820030056,0.010876936663407832,None,aquaman,001,2020_Apr_10_1222,letters,2020.1.2,60.04034051030554,
B,A,right,56,1,113,1,,,,,79.05277957598446,None,79.05277957598446,None,right,1,0.11168705701129511,0.010906759649515152,None,aquaman,001,2020_Apr_10_1222,letters,2020.1.2,60.04034051030554,
B,A,right,57,0,114,1,,,,,79.30214876501122,None,79.30214876501122,None,right,1,0.3671043340000324,0.012326885596849024,None,aquaman,001,2020_Apr_10_1222,letters,2020.1.2,60.04034051030554,
A,B,left,57,1,115,0,,,,,79.8193321810104,None,79.8193321810104,None,left,1,0.6780217080377042,0.008412517607212067,None,aquaman,001,2020_Apr_10_1222,letters,2020.1.2,60.04034051030554,
A,B,left,58,0,116,0,,,,,80.63493399700383,None,80.63493399700383,None,left,1,0.3544705400126986,0.012404373614117503,None,aquaman,001,2020_Apr_10_1222,letters,2020.1.2,60.04034051030554,
A,B,left,58,1,117,0,,,,,81.13466640596744,None,81.13466640596744,None,left,1,0.34269762702751905,0.011447776632849127,None,aquaman,001,2020_Apr_10_1222,letters,2020.1.2,60.04034051030554,
A,B,left,59,0,118,0,,,,,81.61812782497145,None,81.61812782497145,None,left,1,0.3252883569803089,0.011427336663473397,None,aquaman,001,2020_Apr_10_1222,letters,2020.1.2,60.04034051030554,
A,B,left,59,1,119,0,,,,,82.0855938050081,None,82.0855938050081,None,left,1,0.35683161701308563,0.011698655609507114,None,aquaman,001,2020_Apr_10_1222,letters,2020.1.2,60.04034051030554,
B,A,right,60,0,120,1,,,,,82.58509081800003,None,82.58509081800003,None,right,1,0.3703016059589572,0.008169847598765045,None,aquaman,001,2020_Apr_10_1222,letters,2020.1.2,60.04034051030554,
A,B,left,60,1,121,0,,,,,83.10124786297092,None,83.10124786297092,None,left,1,0.4081904069753364,0.007939867617096752,None,aquaman,001,2020_Apr_10_1222,letters,2020.1.2,60.04034051030554,
B,A,right,61,0,122,1,,,,,83.65204933501082,None,83.65204933501082,None,right,1,0.3161654759896919,0.008097173587884754,None,aquaman,001,2020_Apr_10_1222,letters,2020.1.2,60.04034051030554,
B,A,right,61,1,123,1,,,,,84.10097575798864,None,84.10097575798864,None,right,1,0.47924043698003516,0.011185075622051954,None,aquaman,001,2020_Apr_10_1222,letters,2020.1.2,60.04034051030554,
A,B,left,62,0,124,0,,,,,84.71769309096271,None,84.71769309096271,None,left,1,0.3685146849602461,0.008914322592318058,None,aquaman,001,2020_Apr_10_1222,letters,2020.1.2,60.04034051030554,
A,B,left,62,1,125,0,,,,,85.23644983099075,None,85.23644983099075,None,left,1,0.3336760560050607,0.010757188603747636,None,aquaman,001,2020_Apr_10_1222,letters,2020.1.2,60.04034051030554,
A,B,left,63,0,126,0,,,,,85.71768572495785,None,85.71768572495785,None,left,1,0.47862252604682,0.011118368594907224,None,aquaman,001,2020_Apr_10_1222,letters,2020.1.2,60.04034051030554,
A,B,left,63,1,127,0,,,,,86.33649517595768,None,86.33649517595768,None,left,1,0.3277165169711225,0.0108702706056647,None,aquaman,001,2020_Apr_10_1222,letters,2020.1.2,60.04034051030554,
B,A,right,64,0,128,1,,,,,86.80260537698632,None,86.80260537698632,None,right,1,0.3877172850188799,0.008993069641292095,None,aquaman,001,2020_Apr_10_1222,letters,2020.1.2,60.04034051030554,
B,A,right,64,1,129,1,,,,,87.3350621839636,None,87.3350621839636,None,right,1,0.35916648601414636,0.011266715649981052,None,aquaman,001,2020_Apr_10_1222,letters,2020.1.2,60.04034051030554,
A,B,left,65,0,130,0,,,,,87.83544827101287,None,87.83544827101287,None,left,1,0.3787380310241133,0.009110188577324152,None,aquaman,001,2020_Apr_10_1222,letters,2020.1.2,60.04034051030554,
A,B,left,65,1,131,0,,,,,88.35229398298543,None,88.35229398298543,None,left,1,0.37781180400634184,0.011659302632324398,None,aquaman,001,2020_Apr_10_1222,letters,2020.1.2,60.04034051030554,
B,A,right,66,0,132,1,,,,,88.86872529500397,None,88.86872529500397,None,right,1,0.3724918810185045,0.008804711629636586,None,aquaman,001,2020_Apr_10_1222,letters,2020.1.2,60.04034051030554,
B,A,right,66,1,133,1,,,,,89.38535057997797,None,89.38535057997797,None,right,1,0.3417193950153887,0.010902560607064515,None,aquaman,001,2020_Apr_10_1222,letters,2020.1.2,60.04034051030554,
A,B,left,67,0,134,0,,,,,89.86776900000405,None,89.86776900000405,None,left,1,0.34630472597200423,0.00822830863762647,None,aquaman,001,2020_Apr_10_1222,letters,2020.1.2,60.04034051030554,
A,B,left,67,1,135,0,,,,,90.35217584297061,None,90.35217584297061,None,left,1,0.3687470000004396,0.011553917604032904,None,aquaman,001,2020_Apr_10_1222,letters,2020.1.2,60.04034051030554,
A,B,left,68,0,136,0,,,,,90.86917832796462,None,90.86917832796462,None,left,1,0.39888162299757823,0.011583203624468297,None,aquaman,001,2020_Apr_10_1222,letters,2020.1.2,60.04034051030554,
B,A,right,68,1,137,1,,,,,91.40235651598778,None,91.40235651598778,None,right,1,0.40271679701982066,0.008191748580429703,None,aquaman,001,2020_Apr_10_1222,letters,2020.1.2,60.04034051030554,
B,A,right,69,0,138,1,,,,,91.95164795999881,None,91.95164795999881,None,right,1,0.4274000310106203,0.010885325609706342,None,aquaman,001,2020_Apr_10_1222,letters,2020.1.2,60.04034051030554,
A,B,left,69,1,139,0,,,,,92.51840046298457,None,92.51840046298457,None,left,1,0.3626480899984017,0.008478509611450136,None,aquaman,001,2020_Apr_10_1222,letters,2020.1.2,60.04034051030554,
B,A,right,70,0,140,1,,,,,93.01892025599955,None,93.01892025599955,None,right,1,0.44916428404394537,0.00860741559881717,None,aquaman,001,2020_Apr_10_1222,letters,2020.1.2,60.04034051030554,
B,A,right,70,1,141,1,,,,,93.60199421300786,None,93.60199421300786,None,right,1,0.3678836220060475,0.01057487161597237,None,aquaman,001,2020_Apr_10_1222,letters,2020.1.2,60.04034051030554,
A,B,left,71,0,142,0,,,,,94.11879049800336,None,94.11879049800336,None,left,1,0.38129756902344525,0.00855267362203449,None,aquaman,001,2020_Apr_10_1222,letters,2020.1.2,60.04034051030554,
A,B,left,71,1,143,0,,,,,94.63453180197394,None,94.63453180197394,None,left,1,0.35757646599086,0.010856741631869227,None,aquaman,001,2020_Apr_10_1222,letters,2020.1.2,60.04034051030554,
B,A,right,72,0,144,1,,,,,95.13513742800569,None,95.13513742800569,None,right,1,0.3707555729779415,0.008284345618449152,None,aquaman,001,2020_Apr_10_1222,letters,2020.1.2,60.04034051030554,
B,A,right,72,1,145,1,,,,,95.65218587499112,None,95.65218587499112,None,right,1,0.3398502019699663,0.011246304609812796,None,aquaman,001,2020_Apr_10_1222,letters,2020.1.2,60.04034051030554,
A,B,left,73,0,146,0,,,,,96.1349736439879,None,96.1349736439879,None,left,1,0.39383764803642407,0.008095845638308674,None,aquaman,001,2020_Apr_10_1222,letters,2020.1.2,60.04034051030554,
B,A,right,73,1,147,1,,,,,96.67093389999354,None,96.67093389999354,None,right,1,0.43111154198413715,0.0071149986470118165,None,aquaman,001,2020_Apr_10_1222,letters,2020.1.2,60.04034051030554,
A,B,left,74,0,148,0,,,,,97.23434145195642,None,97.23434145195642,None,left,1,0.43442002596566454,0.008555178588721901,None,aquaman,001,2020_Apr_10_1222,letters,2020.1.2,60.04034051030554,
A,B,left,74,1,149,0,,,,,97.81988554500276,None,97.81988554500276,None,left,1,0.3869909179629758,0.01089882361702621,None,aquaman,001,2020_Apr_10_1222,letters,2020.1.2,60.04034051030554,
A,B,left,75,0,150,0,,,,,98.35241722495994,None,98.35241722495994,None,left,1,0.38928808498894796,0.01125968963606283,None,aquaman,001,2020_Apr_10_1222,letters,2020.1.2,60.04034051030554,
A,B,left,75,1,151,0,,,,,98.88411984295817,None,98.88411984295817,None,left,1,0.34260557498782873,0.013152845611330122,None,aquaman,001,2020_Apr_10_1222,letters,2020.1.2,60.04034051030554,
B,A,right,76,0,152,1,,,,,99.36768588400446,None,99.36768588400446,None,right,1,0.40602415800094604,0.00952219363534823,None,aquaman,001,2020_Apr_10_1222,letters,2020.1.2,60.04034051030554,
B,A,right,76,1,153,1,,,,,99.91748712799745,None,99.91748712799745,None,right,1,0.3541875600349158,0.011862337647471577,None,aquaman,001,2020_Apr_10_1222,letters,2020.1.2,60.04034051030554,
B,A,right,77,0,154,1,,,,,100.41742571798386,None,100.41742571798386,None,right,1,0.3302338579669595,0.011906835658010095,None,aquaman,001,2020_Apr_10_1222,letters,2020.1.2,60.04034051030554,
B,A,right,77,1,155,1,,,,,100.88383430801332,None,100.88383430801332,None,right,1,0.3767926680156961,0.011808798648416996,None,aquaman,001,2020_Apr_10_1222,letters,2020.1.2,60.04034051030554,
A,B,left,78,0,156,0,,,,,101.4011099190102,None,101.4011099190102,None,left,1,0.3705253229709342,0.010951460630167276,None,aquaman,001,2020_Apr_10_1222,letters,2020.1.2,60.04034051030554,
B,A,right,78,1,157,1,,,,,101.91759623895632,None,101.91759623895632,None,right,1,0.4220133049529977,0.008901541586965322,None,aquaman,001,2020_Apr_10_1222,letters,2020.1.2,60.04034051030554,
A,B,left,79,0,158,0,,,,,102.48496520897606,None,102.48496520897606,None,left,1,0.3146369950263761,0.009226094582118094,None,aquaman,001,2020_Apr_10_1222,letters,2020.1.2,60.04034051030554,
A,B,left,79,1,159,0,,,,,102.93467790901195,None,102.93467790901195,None,left,1,0.4369129919796251,0.011451355589088053,None,aquaman,001,2020_Apr_10_1222,letters,2020.1.2,60.04034051030554,
B,A,right,80,0,160,1,,,,,103.51792853098596,None,103.51792853098596,None,right,1,0.37890594103373587,0.008933848643209785,None,aquaman,001,2020_Apr_10_1222,letters,2020.1.2,60.04034051030554,
B,A,right,80,1,161,1,,,,,104.03466893697623,None,104.03466893697623,None,right,1,0.44085113803157583,0.012405371584463865,None,aquaman,001,2020_Apr_10_1222,letters,2020.1.2,60.04034051030554,
B,A,right,81,0,162,1,,,,,104.61748763697688,None,104.61748763697688,None,right,1,0.3220927909715101,0.013051738613285124,None,aquaman,001,2020_Apr_10_1222,letters,2020.1.2,60.04034051030554,
A,B,left,81,1,163,0,,,,,105.08447399595752,None,105.08447399595752,None,left,1,0.38003274000948295,0.009211953612975776,None,aquaman,001,2020_Apr_10_1222,letters,2020.1.2,60.04034051030554,
A,B,left,82,0,164,0,,,,,105.60069621895673,None,105.60069621895673,None,left,1,0.34378231898881495,0.012290364655200392,None,aquaman,001,2020_Apr_10_1222,letters,2020.1.2,60.04034051030554,
A,B,left,82,1,165,0,,,,,106.08474093599943,None,106.08474093599943,None,left,1,0.3737598559819162,0.012465307605452836,None,aquaman,001,2020_Apr_10_1222,letters,2020.1.2,60.04034051030554,
B,A,right,83,0,166,1,,,,,106.60083743999712,None,106.60083743999712,None,right,1,0.3236082440125756,0.01103134558070451,None,aquaman,001,2020_Apr_10_1222,letters,2020.1.2,60.04034051030554,
B,A,right,83,1,167,1,,,,,107.06755550199887,None,107.06755550199887,None,right,1,0.36687085195444524,0.012518113595433533,None,aquaman,001,2020_Apr_10_1222,letters,2020.1.2,60.04034051030554,
B,A,right,84,0,168,1,,,,,107.58433863800019,None,107.58433863800019,None,right,1,0.35721171100158244,0.012654731632210314,None,aquaman,001,2020_Apr_10_1222,letters,2020.1.2,60.04034051030554,
A,B,left,84,1,169,0,,,,,108.08402619499248,None,108.08402619499248,None,left,1,0.41343790700193495,0.011153398605529219,None,aquaman,001,2020_Apr_10_1222,letters,2020.1.2,60.04034051030554,
A,B,left,85,0,170,0,,,,,108.63315199397039,None,108.63315199397039,None,left,1,0.4092691399855539,0.012152930663432926,None,aquaman,001,2020_Apr_10_1222,letters,2020.1.2,60.04034051030554,
B,A,right,85,1,171,1,,,,,109.18357816000935,None,109.18357816000935,None,right,1,0.39785160799510777,0.00969196658115834,None,aquaman,001,2020_Apr_10_1222,letters,2020.1.2,60.04034051030554,
B,A,right,86,0,172,1,,,,,109.71760385297239,None,109.71760385297239,None,right,1,0.39478151500225067,0.012187926622573286,None,aquaman,001,2020_Apr_10_1222,letters,2020.1.2,60.04034051030554,
B,A,right,86,1,173,1,,,,,110.24993721500505,None,110.24993721500505,None,right,1,0.3503486349945888,0.011976613604929298,None,aquaman,001,2020_Apr_10_1222,letters,2020.1.2,60.04034051030554,
B,A,right,87,0,174,1,,,,,110.73440237197792,None,110.73440237197792,None,right,1,0.36493255000095814,0.012152677576523274,None,aquaman,001,2020_Apr_10_1222,letters,2020.1.2,60.04034051030554,
A,B,left,87,1,175,0,,,,,111.23433263896732,None,111.23433263896732,None,left,1,0.3829646189697087,0.009087042592000216,None,aquaman,001,2020_Apr_10_1222,letters,2020.1.2,60.04034051030554,
B,A,right,88,0,176,1,,,,,111.76754520798568,None,111.76754520798568,None,right,1,0.4167587099946104,0.008930741576477885,None,aquaman,001,2020_Apr_10_1222,letters,2020.1.2,60.04034051030554,
B,A,right,88,1,177,1,,,,,112.3169305800111,None,112.3169305800111,None,left,0,0.3423560519586317,0.011671535612549633,None,aquaman,001,2020_Apr_10_1222,letters,2020.1.2,60.04034051030554,
B,A,right,89,0,178,1,,,,,112.80082851398038,None,112.80082851398038,None,right,1,0.28446306596742943,0.012835561588872224,None,aquaman,001,2020_Apr_10_1222,letters,2020.1.2,60.04034051030554,
A,B,left,89,1,179,0,,,,,113.23387304396601,None,113.23387304396601,None,left,1,0.39440340001601726,0.011097732640337199,None,aquaman,001,2020_Apr_10_1222,letters,2020.1.2,60.04034051030554,
B,A,right,90,0,180,1,,,,,113.76690269698156,None,113.76690269698156,None,right,1,0.4363559989724308,0.011065935657825321,None,aquaman,001,2020_Apr_10_1222,letters,2020.1.2,60.04034051030554,
B,A,right,90,1,181,1,,,,,114.33576095598983,None,114.33576095598983,None,right,1,0.36447076505282894,0.013034435629379004,None,aquaman,001,2020_Apr_10_1222,letters,2020.1.2,60.04034051030554,
B,A,right,91,0,182,1,,,,,114.83403183799237,None,114.83403183799237,None,right,1,0.3481626360444352,0.012952205608598888,None,aquaman,001,2020_Apr_10_1222,letters,2020.1.2,60.04034051030554,
B,A,right,91,1,183,1,,,,,115.31763733696425,None,115.31763733696425,None,right,1,0.4025633300188929,0.013124531658831984,None,aquaman,001,2020_Apr_10_1222,letters,2020.1.2,60.04034051030554,
B,A,right,92,0,184,1,,,,,115.86629726598039,None,115.86629726598039,None,right,1,0.37786063202656806,0.013004393666051328,None,aquaman,001,2020_Apr_10_1222,letters,2020.1.2,60.04034051030554,
B,A,right,92,1,185,1,,,,,116.38317911396734,None,116.38317911396734,None,right,1,0.34498578700004146,0.013039880606811494,None,aquaman,001,2020_Apr_10_1222,letters,2020.1.2,60.04034051030554,
A,B,left,93,0,186,0,,,,,116.8674056410091,None,116.8674056410091,None,left,1,0.41476867598248646,0.010782375640701503,None,aquaman,001,2020_Apr_10_1222,letters,2020.1.2,60.04034051030554,
A,B,left,93,1,187,0,,,,,117.41712983499747,None,117.41712983499747,None,left,1,0.37100805900990963,0.012967837625183165,None,aquaman,001,2020_Apr_10_1222,letters,2020.1.2,60.04034051030554,
B,A,right,94,0,188,1,,,,,117.9330585289863,None,117.9330585289863,None,right,1,0.38503394095459953,0.010923164605628699,None,aquaman,001,2020_Apr_10_1222,letters,2020.1.2,60.04034051030554,
B,A,right,94,1,189,1,,,,,118.46752193098655,None,118.46752193098655,None,right,1,0.32760009804042056,0.0130093315965496,None,aquaman,001,2020_Apr_10_1222,letters,2020.1.2,60.04034051030554,
A,B,left,95,0,190,0,,,,,118.93344706197968,None,118.93344706197968,None,left,1,0.40866046596784145,0.011030341614969075,None,aquaman,001,2020_Apr_10_1222,letters,2020.1.2,60.04034051030554,
B,A,right,95,1,191,1,,,,,119.48364039696753,None,119.48364039696753,None,right,1,0.3844146350165829,0.0109915686189197,None,aquaman,001,2020_Apr_10_1222,letters,2020.1.2,60.04034051030554,
B,A,right,96,0,192,1,,,,,120.01653440500377,None,120.01653440500377,None,right,1,0.47247109696036205,0.012967711663804948,None,aquaman,001,2020_Apr_10_1222,letters,2020.1.2,60.04034051030554,
B,A,right,96,1,193,1,,,,,120.63442716799909,None,120.63442716799909,None,right,1,0.33756400999845937,0.01292155054397881,None,aquaman,001,2020_Apr_10_1222,letters,2020.1.2,60.04034051030554,
A,B,left,97,0,194,0,,,,,121.11746035300894,None,121.11746035300894,None,left,1,0.40258256503148004,0.010888062650337815,None,aquaman,001,2020_Apr_10_1222,letters,2020.1.2,60.04034051030554,
A,B,left,97,1,195,0,,,,,121.66699979599798,None,121.66699979599798,None,left,1,0.3180248769931495,0.01307808666024357,None,aquaman,001,2020_Apr_10_1222,letters,2020.1.2,60.04034051030554,
A,B,left,98,0,196,0,,,,,122.13368277298287,None,122.13368277298287,None,left,1,0.49627624003915116,0.013012384588364512,None,aquaman,001,2020_Apr_10_1222,letters,2020.1.2,60.04034051030554,
A,B,left,98,1,197,0,,,,,122.76717706798809,None,122.76717706798809,None,left,1,0.3158225170336664,0.013162498595193028,None,aquaman,001,2020_Apr_10_1222,letters,2020.1.2,60.04034051030554,
B,A,right,99,0,198,1,,,,,123.2161323389737,None,123.2161323389737,None,right,1,0.3808237480116077,0.010671934636775404,None,aquaman,001,2020_Apr_10_1222,letters,2020.1.2,60.04034051030554,
B,A,right,99,1,199,1,,,,,123.73408233799273,None,123.73408233799273,None,right,1,0.30787877598777413,0.013114273606333882,None,aquaman,001,2020_Apr_10_1222,letters,2020.1.2,60.04034051030554,
