text,letterColor,corrAns,congruent,trials.thisRepN,trials.thisTrialN,trials.thisN,trials.thisIndex,instrText.started,instrText.stopped,word.started,word.stopped,resp.keys,resp.corr,resp.rt,resp.started,resp.stopped,thanksText.started,thanksText.stopped,session,participant,date,expName,psychopyVersion,frameRate,
red,red,left,1,0,0,0,0,10.652306149015203,None,13.003217362012947,None,left,1,0.8709385730035137,13.003217362012947,None,,,01,02,2020_Apr_04_0836,stroop,2020.1.2,59.984580720421434,
blue,blue,right,1,0,1,1,4,,,14.384973976004403,None,right,1,0.752251072000945,14.384973976004403,None,,,01,02,2020_Apr_04_0836,stroop,2020.1.2,59.984580720421434,
red,green,down,0,0,2,2,1,,,15.65262122801505,None,down,1,0.8175212960049976,15.65262122801505,None,,,01,02,2020_Apr_04_0836,stroop,2020.1.2,59.984580720421434,
blue,red,left,0,0,3,3,5,,,16.985286189010367,None,left,1,1.010868319979636,16.985286189010367,None,,,01,02,2020_Apr_04_0836,stroop,2020.1.2,59.984580720421434,
green,blue,right,0,0,4,4,3,,,18.50242132198764,None,right,1,2.2865784160094336,18.50242132198764,None,,,01,02,2020_Apr_04_0836,stroop,2020.1.2,59.984580720421434,
green,green,down,1,0,5,5,2,,,21.284503083996242,None,down,1,0.8924100099829957,21.284503083996242,None,,,01,02,2020_Apr_04_0836,stroop,2020.1.2,59.984580720421434,
blue,red,left,0,1,0,6,5,,,22.685183933004737,None,left,1,0.6428713939967565,22.685183933004737,None,,,01,02,2020_Apr_04_0836,stroop,2020.1.2,59.984580720421434,
red,red,left,1,1,1,7,0,,,23.836097980005434,None,left,1,0.4467519820027519,23.836097980005434,None,,,01,02,2020_Apr_04_0836,stroop,2020.1.2,59.984580720421434,
green,blue,right,0,1,2,8,3,,,24.7850832400145,None,right,1,0.8207673759898171,24.7850832400145,None,,,01,02,2020_Apr_04_0836,stroop,2020.1.2,59.984580720421434,
green,green,down,1,1,3,9,2,,,26.117317489988636,None,down,1,0.8734819339879323,26.117317489988636,None,,,01,02,2020_Apr_04_0836,stroop,2020.1.2,59.984580720421434,
blue,blue,right,1,1,4,10,4,,,27.50060070399195,None,right,1,1.208384889003355,27.50060070399195,None,,,01,02,2020_Apr_04_0836,stroop,2020.1.2,59.984580720421434,
red,green,down,0,1,5,11,1,,,29.21624484201311,None,down,1,1.868763702979777,29.21624484201311,None,,,01,02,2020_Apr_04_0836,stroop,2020.1.2,59.984580720421434,
green,green,down,1,2,0,12,2,,,31.599888461001683,None,down,1,0.565896983986022,31.599888461001683,None,,,01,02,2020_Apr_04_0836,stroop,2020.1.2,59.984580720421434,
blue,blue,right,1,2,1,13,4,,,32.66907275500125,None,right,1,0.578562504000729,32.66907275500125,None,,,01,02,2020_Apr_04_0836,stroop,2020.1.2,59.984580720421434,
red,green,down,0,2,2,14,1,,,33.74947755999165,None,down,1,1.0941943250072654,33.74947755999165,None,,,01,02,2020_Apr_04_0836,stroop,2020.1.2,59.984580720421434,
blue,red,left,0,2,3,15,5,,,35.34946346201468,None,left,1,0.7751990169927012,35.34946346201468,None,,,01,02,2020_Apr_04_0836,stroop,2020.1.2,59.984580720421434,
green,blue,right,0,2,4,16,3,,,36.63563516299473,None,right,1,0.6989805630000774,36.63563516299473,None,,,01,02,2020_Apr_04_0836,stroop,2020.1.2,59.984580720421434,
red,red,left,1,2,5,17,0,,,37.83341769198887,None,left,1,0.6593042470049113,37.83341769198887,None,,,01,02,2020_Apr_04_0836,stroop,2020.1.2,59.984580720421434,
green,green,down,1,3,0,18,2,,,39.000438896007836,None,down,1,0.6262695339974016,39.000438896007836,None,,,01,02,2020_Apr_04_0836,stroop,2020.1.2,59.984580720421434,
blue,blue,right,1,3,1,19,4,,,40.1334484879917,None,right,1,0.6271650729759131,40.1334484879917,None,,,01,02,2020_Apr_04_0836,stroop,2020.1.2,59.984580720421434,
red,green,down,0,3,2,20,1,,,41.26639663000242,None,down,1,1.2810242249979638,41.26639663000242,None,,,01,02,2020_Apr_04_0836,stroop,2020.1.2,59.984580720421434,
red,red,left,1,3,3,21,0,,,43.050916295003844,None,left,1,0.8156221290118992,43.050916295003844,None,,,01,02,2020_Apr_04_0836,stroop,2020.1.2,59.984580720421434,
blue,red,left,0,3,4,22,5,,,44.370090047013946,None,left,1,1.2863661879964639,44.370090047013946,None,,,01,02,2020_Apr_04_0836,stroop,2020.1.2,59.984580720421434,
green,blue,right,0,3,5,23,3,,,46.16625761901378,None,right,1,0.5561911969853099,46.16625761901378,None,,,01,02,2020_Apr_04_0836,stroop,2020.1.2,59.984580720421434,
blue,blue,right,1,4,0,24,4,,,47.233735526999226,None,right,1,0.5614799539907835,47.233735526999226,None,,,01,02,2020_Apr_04_0836,stroop,2020.1.2,59.984580720421434,
green,blue,right,0,4,1,25,3,,,48.29955898199114,None,right,1,0.37582385502173565,48.29955898199114,None,,,01,02,2020_Apr_04_0836,stroop,2020.1.2,59.984580720421434,
red,green,down,0,4,2,26,1,,,49.18590050301282,None,down,1,0.5663205290038604,49.18590050301282,None,,,01,02,2020_Apr_04_0836,stroop,2020.1.2,59.984580720421434,
green,green,down,1,4,3,27,2,,,50.270323901000666,None,down,1,0.9979840820014942,50.270323901000666,None,,,01,02,2020_Apr_04_0836,stroop,2020.1.2,59.984580720421434,
red,red,left,1,4,4,28,0,,,51.76615160598885,None,left,1,0.5851000909751747,51.76615160598885,None,,,01,02,2020_Apr_04_0836,stroop,2020.1.2,59.984580720421434,
blue,red,left,0,4,5,29,5,,,52.84914907001075,None,left,1,0.8931036239955574,52.84914907001075,None,,,01,02,2020_Apr_04_0836,stroop,2020.1.2,59.984580720421434,
,,,,,,,,,,,,,,,,,53.78810439299559,None,,,,,,,
