,Unnamed: 0,Unnamed: 25,congruent,corrAns,date,expName,frameRate,instrText.started,instrText.stopped,letterColor,participant,psychopyVersion,resp.corr,resp.keys,resp.rt,resp.started,resp.stopped,session,text,thanksText.started,thanksText.stopped,trials.thisIndex,trials.thisN,trials.thisRepN,trials.thisTrialN,word.started,word.stopped
0,,,0.0,down,2020_Apr_04_1324,stroop,60.011564941890825,24.93785783700877,None,green,4.0,2020.1.2,1.0,down,1.1332468050241005,29.019076131022306,None,1.0,red,,,1.0,0.0,0.0,0.0,29.019076131022306,None
1,,,0.0,left,2020_Apr_04_1324,stroop,60.011564941890825,,,red,4.0,2020.1.2,1.0,left,0.9332524880010168,30.654931137018142,None,1.0,blue,,,5.0,1.0,0.0,1.0,30.654931137018142,None
2,,,1.0,right,2020_Apr_04_1324,stroop,60.011564941890825,,,blue,4.0,2020.1.2,1.0,right,0.8935536899953149,32.10456376502407,None,1.0,blue,,,4.0,2.0,0.0,2.0,32.10456376502407,None
3,,,1.0,down,2020_Apr_04_1324,stroop,60.011564941890825,,,green,4.0,2020.1.2,1.0,down,0.5554820519755594,33.5045893700153,None,1.0,green,,,2.0,3.0,0.0,3.0,33.5045893700153,None
4,,,1.0,left,2020_Apr_04_1324,stroop,60.011564941890825,,,red,4.0,2020.1.2,1.0,left,0.4825076540000737,34.56854936899617,None,1.0,red,,,0.0,4.0,0.0,4.0,34.56854936899617,None
5,,,0.0,right,2020_Apr_04_1324,stroop,60.011564941890825,,,blue,4.0,2020.1.2,1.0,right,0.9992572659975848,35.551875934004784,None,1.0,green,,,3.0,5.0,0.0,5.0,35.551875934004784,None
6,,,0.0,left,2020_Apr_04_1324,stroop,60.011564941890825,,,red,4.0,2020.1.2,1.0,left,0.8196686790033709,37.0522327220242,None,1.0,blue,,,5.0,6.0,1.0,0.0,37.0522327220242,None
7,,,1.0,right,2020_Apr_04_1324,stroop,60.011564941890825,,,blue,4.0,2020.1.2,1.0,right,0.9075359400012529,38.38651754500461,None,1.0,blue,,,4.0,7.0,1.0,1.0,38.38651754500461,None
8,,,1.0,down,2020_Apr_04_1324,stroop,60.011564941890825,,,green,4.0,2020.1.2,1.0,down,0.5910860000003595,39.80191855202429,None,1.0,green,,,2.0,8.0,1.0,2.0,39.80191855202429,None
9,,,0.0,down,2020_Apr_04_1324,stroop,60.011564941890825,,,green,4.0,2020.1.2,1.0,down,2.9064140210102787,40.90125967899803,None,1.0,red,,,1.0,9.0,1.0,3.0,40.90125967899803,None
10,,,1.0,left,2020_Apr_04_1324,stroop,60.011564941890825,,,red,4.0,2020.1.2,1.0,left,0.5970124950108584,44.3196261220146,None,1.0,red,,,0.0,10.0,1.0,4.0,44.3196261220146,None
11,,,0.0,right,2020_Apr_04_1324,stroop,60.011564941890825,,,blue,4.0,2020.1.2,1.0,right,0.6388208889984526,45.418641518015654,None,1.0,green,,,3.0,11.0,1.0,5.0,45.418641518015654,None
12,,,1.0,left,2020_Apr_04_1324,stroop,60.011564941890825,,,red,4.0,2020.1.2,1.0,left,0.6895203889871482,46.604866544017575,None,1.0,red,,,0.0,12.0,2.0,0.0,46.604866544017575,None
13,,,0.0,left,2020_Apr_04_1324,stroop,60.011564941890825,,,red,4.0,2020.1.2,1.0,left,2.09091269999044,47.807386746018885,None,1.0,blue,,,5.0,13.0,2.0,1.0,47.807386746018885,None
14,,,0.0,right,2020_Apr_04_1324,stroop,60.011564941890825,,,blue,4.0,2020.1.2,1.0,right,0.6742631660017651,50.40110253400053,None,1.0,green,,,3.0,14.0,2.0,2.0,50.40110253400053,None
15,,,1.0,down,2020_Apr_04_1324,stroop,60.011564941890825,,,green,4.0,2020.1.2,1.0,down,0.6721132679958828,51.5862407310051,None,1.0,green,,,2.0,15.0,2.0,3.0,51.5862407310051,None
16,,,0.0,down,2020_Apr_04_1324,stroop,60.011564941890825,,,green,4.0,2020.1.2,0.0,right,0.8555173380009364,52.76851519499907,None,1.0,red,,,1.0,16.0,2.0,4.0,52.76851519499907,None
17,,,1.0,right,2020_Apr_04_1324,stroop,60.011564941890825,,,blue,4.0,2020.1.2,1.0,right,0.6826996569870971,54.134463295020396,None,1.0,blue,,,4.0,17.0,2.0,5.0,54.134463295020396,None
18,,,0.0,down,2020_Apr_04_1324,stroop,60.011564941890825,,,green,4.0,2020.1.2,1.0,down,1.015312695002649,55.317800496006384,None,1.0,red,,,1.0,18.0,3.0,0.0,55.317800496006384,None
19,,,1.0,left,2020_Apr_04_1324,stroop,60.011564941890825,,,red,4.0,2020.1.2,1.0,left,0.4809617180144414,56.83613984900876,None,1.0,red,,,0.0,19.0,3.0,1.0,56.83613984900876,None
20,,,1.0,right,2020_Apr_04_1324,stroop,60.011564941890825,,,blue,4.0,2020.1.2,1.0,right,0.5753890859778039,57.817702132015256,None,1.0,blue,,,4.0,20.0,3.0,2.0,57.817702132015256,None
21,,,1.0,down,2020_Apr_04_1324,stroop,60.011564941890825,,,green,4.0,2020.1.2,1.0,down,0.6903676080110017,58.90175427601207,None,1.0,green,,,2.0,21.0,3.0,3.0,58.90175427601207,None
22,,,0.0,right,2020_Apr_04_1324,stroop,60.011564941890825,,,blue,4.0,2020.1.2,1.0,right,0.6233857749903109,60.10163373700925,None,1.0,green,,,3.0,22.0,3.0,4.0,60.10163373700925,None
23,,,0.0,left,2020_Apr_04_1324,stroop,60.011564941890825,,,red,4.0,2020.1.2,1.0,left,0.6257000550103841,61.23429969500285,None,1.0,blue,,,5.0,23.0,3.0,5.0,61.23429969500285,None
24,,,1.0,right,2020_Apr_04_1324,stroop,60.011564941890825,,,blue,4.0,2020.1.2,1.0,right,0.5854064470040612,62.36862290202407,None,1.0,blue,,,4.0,24.0,4.0,0.0,62.36862290202407,None
25,,,1.0,down,2020_Apr_04_1324,stroop,60.011564941890825,,,green,4.0,2020.1.2,1.0,down,0.7389728260168341,63.45201202700264,None,1.0,green,,,2.0,25.0,4.0,1.0,63.45201202700264,None
26,,,0.0,right,2020_Apr_04_1324,stroop,60.011564941890825,,,blue,4.0,2020.1.2,1.0,right,0.5769460339797661,64.7027672160184,None,1.0,green,,,3.0,26.0,4.0,2.0,64.7027672160184,None
27,,,1.0,left,2020_Apr_04_1324,stroop,60.011564941890825,,,red,4.0,2020.1.2,1.0,left,0.8529515549889766,65.78491295099957,None,1.0,red,,,0.0,27.0,4.0,3.0,65.78491295099957,None
28,,,0.0,left,2020_Apr_04_1324,stroop,60.011564941890825,,,red,4.0,2020.1.2,1.0,left,0.6437123290088493,67.13695264601847,None,1.0,blue,,,5.0,28.0,4.0,4.0,67.13695264601847,None
29,,,0.0,down,2020_Apr_04_1324,stroop,60.011564941890825,,,green,4.0,2020.1.2,0.0,right,0.6716551319987047,68.28917988302419,None,1.0,red,,,1.0,29.0,4.0,5.0,68.28917988302419,None
30,,,1.0,left,2020_Apr_04_0835,stroop,60.05505258177558,23.287201743980408,None,red,1.0,2020.1.2,1.0,left,1.1239715729898307,30.561659061000682,None,1.0,red,,,0.0,0.0,0.0,0.0,30.561659061000682,None
31,,,0.0,down,2020_Apr_04_0835,stroop,60.05505258177558,,,green,1.0,2020.1.2,1.0,down,0.8827095440065023,32.19191870698705,None,1.0,red,,,1.0,1.0,0.0,1.0,32.19191870698705,None
32,,,0.0,right,2020_Apr_04_0835,stroop,60.05505258177558,,,blue,1.0,2020.1.2,1.0,right,0.4773139850003645,33.575173844001256,None,1.0,green,,,3.0,2.0,0.0,2.0,33.575173844001256,None
33,,,1.0,right,2020_Apr_04_0835,stroop,60.05505258177558,,,blue,1.0,2020.1.2,1.0,right,0.6155794060032349,34.5619866559864,None,1.0,blue,,,4.0,3.0,0.0,3.0,34.5619866559864,None
34,,,1.0,down,2020_Apr_04_0835,stroop,60.05505258177558,,,green,1.0,2020.1.2,1.0,down,0.8124830980086699,35.693957409006536,None,1.0,green,,,2.0,4.0,0.0,4.0,35.693957409006536,None
35,,,0.0,left,2020_Apr_04_0835,stroop,60.05505258177558,,,red,1.0,2020.1.2,1.0,left,1.4948099410103168,37.01074217900168,None,1.0,blue,,,5.0,5.0,0.0,5.0,37.01074217900168,None
36,,,0.0,down,2020_Apr_04_0835,stroop,60.05505258177558,,,green,1.0,2020.1.2,1.0,down,0.8979434969951399,39.010584486997686,None,1.0,red,,,1.0,6.0,1.0,0.0,39.010584486997686,None
37,,,1.0,down,2020_Apr_04_0835,stroop,60.05505258177558,,,green,1.0,2020.1.2,1.0,down,0.5528319300210569,40.40845732798335,None,1.0,green,,,2.0,7.0,1.0,1.0,40.40845732798335,None
38,,,1.0,left,2020_Apr_04_0835,stroop,60.05505258177558,,,red,1.0,2020.1.2,1.0,left,0.7617821790045127,41.47862289400655,None,1.0,red,,,0.0,8.0,1.0,2.0,41.47862289400655,None
39,,,1.0,right,2020_Apr_04_0835,stroop,60.05505258177558,,,blue,1.0,2020.1.2,1.0,right,0.6487987869768403,42.74263982998672,None,1.0,blue,,,4.0,9.0,1.0,3.0,42.74263982998672,None
40,,,0.0,left,2020_Apr_04_0835,stroop,60.05505258177558,,,red,1.0,2020.1.2,1.0,left,1.3742430200218223,43.892966916988364,None,1.0,blue,,,5.0,10.0,1.0,4.0,43.892966916988364,None
41,,,0.0,right,2020_Apr_04_0835,stroop,60.05505258177558,,,blue,1.0,2020.1.2,1.0,right,0.8681021119991783,45.77711231500143,None,1.0,green,,,3.0,11.0,1.0,5.0,45.77711231500143,None
42,,,0.0,left,2020_Apr_04_0835,stroop,60.05505258177558,,,red,1.0,2020.1.2,1.0,left,1.5722225799981966,47.15881612498197,None,1.0,blue,,,5.0,12.0,2.0,0.0,47.15881612498197,None
43,,,1.0,right,2020_Apr_04_0835,stroop,60.05505258177558,,,blue,1.0,2020.1.2,1.0,right,0.8479593879892491,49.24328242399497,None,1.0,blue,,,4.0,13.0,2.0,1.0,49.24328242399497,None
44,,,0.0,right,2020_Apr_04_0835,stroop,60.05505258177558,,,blue,1.0,2020.1.2,1.0,right,0.6404008020181209,50.59273688000394,None,1.0,green,,,3.0,14.0,2.0,2.0,50.59273688000394,None
45,,,0.0,down,2020_Apr_04_0835,stroop,60.05505258177558,,,green,1.0,2020.1.2,1.0,down,1.3060872320202181,51.74098926800071,None,1.0,red,,,1.0,15.0,2.0,3.0,51.74098926800071,None
46,,,1.0,left,2020_Apr_04_0835,stroop,60.05505258177558,,,red,1.0,2020.1.2,1.0,left,0.7695643600018229,53.55945702799363,None,1.0,red,,,0.0,16.0,2.0,4.0,53.55945702799363,None
47,,,1.0,down,2020_Apr_04_0835,stroop,60.05505258177558,,,green,1.0,2020.1.2,1.0,down,0.9168195000092964,54.84309843700612,None,1.0,green,,,2.0,17.0,2.0,5.0,54.84309843700612,None
48,,,0.0,right,2020_Apr_04_0835,stroop,60.05505258177558,,,blue,1.0,2020.1.2,1.0,right,0.8667593720019795,56.27612657999271,None,1.0,green,,,3.0,18.0,3.0,0.0,56.27612657999271,None
49,,,1.0,right,2020_Apr_04_0835,stroop,60.05505258177558,,,blue,1.0,2020.1.2,1.0,right,1.001580551994266,57.658262490993366,None,1.0,blue,,,4.0,19.0,3.0,1.0,57.658262490993366,None
50,,,0.0,down,2020_Apr_04_0835,stroop,60.05505258177558,,,green,1.0,2020.1.2,0.0,left,1.8149727669951967,59.17493176899735,None,1.0,red,,,1.0,20.0,3.0,2.0,59.17493176899735,None
51,,,1.0,left,2020_Apr_04_0835,stroop,60.05505258177558,,,red,1.0,2020.1.2,1.0,left,1.4889435109798796,61.49188600099296,None,1.0,red,,,0.0,21.0,3.0,3.0,61.49188600099296,None
52,,,0.0,left,2020_Apr_04_0835,stroop,60.05505258177558,,,red,1.0,2020.1.2,1.0,left,2.082919765991392,63.4938770349836,None,1.0,blue,,,5.0,22.0,3.0,4.0,63.4938770349836,None
53,,,1.0,down,2020_Apr_04_0835,stroop,60.05505258177558,,,green,1.0,2020.1.2,0.0,right,0.6619299709855113,66.0936097369995,None,1.0,green,,,2.0,23.0,3.0,5.0,66.0936097369995,None
54,,,0.0,down,2020_Apr_04_0835,stroop,60.05505258177558,,,green,1.0,2020.1.2,1.0,down,1.5127920590166468,67.25768056098605,None,1.0,red,,,1.0,24.0,4.0,0.0,67.25768056098605,None
55,,,1.0,right,2020_Apr_04_0835,stroop,60.05505258177558,,,blue,1.0,2020.1.2,1.0,right,0.5267462260089815,69.27569796398166,None,1.0,blue,,,4.0,25.0,4.0,1.0,69.27569796398166,None
56,,,1.0,left,2020_Apr_04_0835,stroop,60.05505258177558,,,red,1.0,2020.1.2,1.0,left,1.0983644939842634,70.30809897798463,None,1.0,red,,,0.0,26.0,4.0,2.0,70.30809897798463,None
57,,,0.0,left,2020_Apr_04_0835,stroop,60.05505258177558,,,red,1.0,2020.1.2,1.0,left,1.3431290030130183,71.90731788298581,None,1.0,blue,,,5.0,27.0,4.0,3.0,71.90731788298581,None
58,,,0.0,right,2020_Apr_04_0835,stroop,60.05505258177558,,,blue,1.0,2020.1.2,1.0,right,0.9787758399907034,73.75755274499535,None,1.0,green,,,3.0,28.0,4.0,4.0,73.75755274499535,None
59,,,1.0,down,2020_Apr_04_0835,stroop,60.05505258177558,,,green,1.0,2020.1.2,1.0,down,0.9106973299931268,75.24152686298476,None,1.0,green,,,2.0,29.0,4.0,5.0,75.24152686298476,None
60,0.0,,1.0,left,2020_Apr_04_0835,stroop,60.05505258177558,23.28720174398041,None,red,1.0,2020.1.2,1.0,left,1.1239715729898307,30.561659061000682,None,1.0,red,,,0.0,0.0,0.0,0.0,30.561659061000682,None
61,1.0,,0.0,down,2020_Apr_04_0835,stroop,60.05505258177558,,,green,1.0,2020.1.2,1.0,down,0.8827095440065023,32.19191870698705,None,1.0,red,,,1.0,1.0,0.0,1.0,32.19191870698705,None
62,2.0,,0.0,right,2020_Apr_04_0835,stroop,60.05505258177558,,,blue,1.0,2020.1.2,1.0,right,0.4773139850003645,33.575173844001256,None,1.0,green,,,3.0,2.0,0.0,2.0,33.575173844001256,None
63,3.0,,1.0,right,2020_Apr_04_0835,stroop,60.05505258177558,,,blue,1.0,2020.1.2,1.0,right,0.6155794060032349,34.5619866559864,None,1.0,blue,,,4.0,3.0,0.0,3.0,34.5619866559864,None
64,4.0,,1.0,down,2020_Apr_04_0835,stroop,60.05505258177558,,,green,1.0,2020.1.2,1.0,down,0.8124830980086699,35.693957409006536,None,1.0,green,,,2.0,4.0,0.0,4.0,35.693957409006536,None
65,5.0,,0.0,left,2020_Apr_04_0835,stroop,60.05505258177558,,,red,1.0,2020.1.2,1.0,left,1.4948099410103168,37.01074217900168,None,1.0,blue,,,5.0,5.0,0.0,5.0,37.01074217900168,None
66,6.0,,0.0,down,2020_Apr_04_0835,stroop,60.05505258177558,,,green,1.0,2020.1.2,1.0,down,0.8979434969951399,39.010584486997686,None,1.0,red,,,1.0,6.0,1.0,0.0,39.010584486997686,None
67,7.0,,1.0,down,2020_Apr_04_0835,stroop,60.05505258177558,,,green,1.0,2020.1.2,1.0,down,0.5528319300210569,40.40845732798335,None,1.0,green,,,2.0,7.0,1.0,1.0,40.40845732798335,None
68,8.0,,1.0,left,2020_Apr_04_0835,stroop,60.05505258177558,,,red,1.0,2020.1.2,1.0,left,0.7617821790045127,41.47862289400655,None,1.0,red,,,0.0,8.0,1.0,2.0,41.47862289400655,None
69,9.0,,1.0,right,2020_Apr_04_0835,stroop,60.05505258177558,,,blue,1.0,2020.1.2,1.0,right,0.6487987869768403,42.74263982998672,None,1.0,blue,,,4.0,9.0,1.0,3.0,42.74263982998672,None
70,10.0,,0.0,left,2020_Apr_04_0835,stroop,60.05505258177558,,,red,1.0,2020.1.2,1.0,left,1.3742430200218223,43.892966916988364,None,1.0,blue,,,5.0,10.0,1.0,4.0,43.892966916988364,None
71,11.0,,0.0,right,2020_Apr_04_0835,stroop,60.05505258177558,,,blue,1.0,2020.1.2,1.0,right,0.8681021119991783,45.77711231500143,None,1.0,green,,,3.0,11.0,1.0,5.0,45.77711231500143,None
72,12.0,,0.0,left,2020_Apr_04_0835,stroop,60.05505258177558,,,red,1.0,2020.1.2,1.0,left,1.5722225799981966,47.15881612498197,None,1.0,blue,,,5.0,12.0,2.0,0.0,47.15881612498197,None
73,13.0,,1.0,right,2020_Apr_04_0835,stroop,60.05505258177558,,,blue,1.0,2020.1.2,1.0,right,0.8479593879892491,49.24328242399497,None,1.0,blue,,,4.0,13.0,2.0,1.0,49.24328242399497,None
74,14.0,,0.0,right,2020_Apr_04_0835,stroop,60.05505258177558,,,blue,1.0,2020.1.2,1.0,right,0.6404008020181209,50.59273688000394,None,1.0,green,,,3.0,14.0,2.0,2.0,50.59273688000394,None
75,15.0,,0.0,down,2020_Apr_04_0835,stroop,60.05505258177558,,,green,1.0,2020.1.2,1.0,down,1.306087232020218,51.74098926800071,None,1.0,red,,,1.0,15.0,2.0,3.0,51.74098926800071,None
76,16.0,,1.0,left,2020_Apr_04_0835,stroop,60.05505258177558,,,red,1.0,2020.1.2,1.0,left,0.7695643600018229,53.55945702799363,None,1.0,red,,,0.0,16.0,2.0,4.0,53.55945702799363,None
77,17.0,,1.0,down,2020_Apr_04_0835,stroop,60.05505258177558,,,green,1.0,2020.1.2,1.0,down,0.9168195000092964,54.84309843700612,None,1.0,green,,,2.0,17.0,2.0,5.0,54.84309843700612,None
78,18.0,,0.0,right,2020_Apr_04_0835,stroop,60.05505258177558,,,blue,1.0,2020.1.2,1.0,right,0.8667593720019795,56.27612657999271,None,1.0,green,,,3.0,18.0,3.0,0.0,56.27612657999271,None
79,19.0,,1.0,right,2020_Apr_04_0835,stroop,60.05505258177558,,,blue,1.0,2020.1.2,1.0,right,1.001580551994266,57.658262490993366,None,1.0,blue,,,4.0,19.0,3.0,1.0,57.658262490993366,None
80,20.0,,0.0,down,2020_Apr_04_0835,stroop,60.05505258177558,,,green,1.0,2020.1.2,0.0,left,1.8149727669951967,59.174931768997354,None,1.0,red,,,1.0,20.0,3.0,2.0,59.174931768997354,None
81,21.0,,1.0,left,2020_Apr_04_0835,stroop,60.05505258177558,,,red,1.0,2020.1.2,1.0,left,1.4889435109798796,61.49188600099296,None,1.0,red,,,0.0,21.0,3.0,3.0,61.49188600099296,None
82,22.0,,0.0,left,2020_Apr_04_0835,stroop,60.05505258177558,,,red,1.0,2020.1.2,1.0,left,2.082919765991392,63.4938770349836,None,1.0,blue,,,5.0,22.0,3.0,4.0,63.4938770349836,None
83,23.0,,1.0,down,2020_Apr_04_0835,stroop,60.05505258177558,,,green,1.0,2020.1.2,0.0,right,0.6619299709855113,66.0936097369995,None,1.0,green,,,2.0,23.0,3.0,5.0,66.0936097369995,None
84,24.0,,0.0,down,2020_Apr_04_0835,stroop,60.05505258177558,,,green,1.0,2020.1.2,1.0,down,1.5127920590166468,67.25768056098605,None,1.0,red,,,1.0,24.0,4.0,0.0,67.25768056098605,None
85,25.0,,1.0,right,2020_Apr_04_0835,stroop,60.05505258177558,,,blue,1.0,2020.1.2,1.0,right,0.5267462260089815,69.27569796398166,None,1.0,blue,,,4.0,25.0,4.0,1.0,69.27569796398166,None
86,26.0,,1.0,left,2020_Apr_04_0835,stroop,60.05505258177558,,,red,1.0,2020.1.2,1.0,left,1.0983644939842634,70.30809897798463,None,1.0,red,,,0.0,26.0,4.0,2.0,70.30809897798463,None
87,27.0,,0.0,left,2020_Apr_04_0835,stroop,60.05505258177558,,,red,1.0,2020.1.2,1.0,left,1.3431290030130183,71.90731788298581,None,1.0,blue,,,5.0,27.0,4.0,3.0,71.90731788298581,None
88,28.0,,0.0,right,2020_Apr_04_0835,stroop,60.05505258177558,,,blue,1.0,2020.1.2,1.0,right,0.9787758399907034,73.75755274499535,None,1.0,green,,,3.0,28.0,4.0,4.0,73.75755274499535,None
89,29.0,,1.0,down,2020_Apr_04_0835,stroop,60.05505258177558,,,green,1.0,2020.1.2,1.0,down,0.9106973299931268,75.24152686298476,None,1.0,green,,,2.0,29.0,4.0,5.0,75.24152686298476,None
90,30.0,,1.0,left,2020_Apr_04_0836,stroop,59.98458072042144,10.652306149015203,None,red,2.0,2020.1.2,1.0,left,0.8709385730035137,13.003217362012947,None,1.0,red,,,0.0,0.0,0.0,0.0,13.003217362012947,None
91,31.0,,1.0,right,2020_Apr_04_0836,stroop,59.98458072042144,,,blue,2.0,2020.1.2,1.0,right,0.7522510720009449,14.384973976004405,None,1.0,blue,,,4.0,1.0,0.0,1.0,14.384973976004405,None
92,32.0,,0.0,down,2020_Apr_04_0836,stroop,59.98458072042144,,,green,2.0,2020.1.2,1.0,down,0.8175212960049976,15.65262122801505,None,1.0,red,,,1.0,2.0,0.0,2.0,15.65262122801505,None
93,33.0,,0.0,left,2020_Apr_04_0836,stroop,59.98458072042144,,,red,2.0,2020.1.2,1.0,left,1.010868319979636,16.985286189010367,None,1.0,blue,,,5.0,3.0,0.0,3.0,16.985286189010367,None
94,34.0,,0.0,right,2020_Apr_04_0836,stroop,59.98458072042144,,,blue,2.0,2020.1.2,1.0,right,2.2865784160094336,18.50242132198764,None,1.0,green,,,3.0,4.0,0.0,4.0,18.50242132198764,None
95,35.0,,1.0,down,2020_Apr_04_0836,stroop,59.98458072042144,,,green,2.0,2020.1.2,1.0,down,0.8924100099829957,21.28450308399624,None,1.0,green,,,2.0,5.0,0.0,5.0,21.28450308399624,None
96,36.0,,0.0,left,2020_Apr_04_0836,stroop,59.98458072042144,,,red,2.0,2020.1.2,1.0,left,0.6428713939967565,22.685183933004733,None,1.0,blue,,,5.0,6.0,1.0,0.0,22.685183933004733,None
97,37.0,,1.0,left,2020_Apr_04_0836,stroop,59.98458072042144,,,red,2.0,2020.1.2,1.0,left,0.4467519820027519,23.83609798000544,None,1.0,red,,,0.0,7.0,1.0,1.0,23.83609798000544,None
98,38.0,,0.0,right,2020_Apr_04_0836,stroop,59.98458072042144,,,blue,2.0,2020.1.2,1.0,right,0.8207673759898171,24.7850832400145,None,1.0,green,,,3.0,8.0,1.0,2.0,24.7850832400145,None
99,39.0,,1.0,down,2020_Apr_04_0836,stroop,59.98458072042144,,,green,2.0,2020.1.2,1.0,down,0.8734819339879323,26.117317489988647,None,1.0,green,,,2.0,9.0,1.0,3.0,26.117317489988647,None
100,40.0,,1.0,right,2020_Apr_04_0836,stroop,59.98458072042144,,,blue,2.0,2020.1.2,1.0,right,1.2083848890033548,27.500600703991946,None,1.0,blue,,,4.0,10.0,1.0,4.0,27.500600703991946,None
101,41.0,,0.0,down,2020_Apr_04_0836,stroop,59.98458072042144,,,green,2.0,2020.1.2,1.0,down,1.8687637029797768,29.21624484201311,None,1.0,red,,,1.0,11.0,1.0,5.0,29.21624484201311,None
102,42.0,,1.0,down,2020_Apr_04_0836,stroop,59.98458072042144,,,green,2.0,2020.1.2,1.0,down,0.565896983986022,31.599888461001683,None,1.0,green,,,2.0,12.0,2.0,0.0,31.599888461001683,None
103,43.0,,1.0,right,2020_Apr_04_0836,stroop,59.98458072042144,,,blue,2.0,2020.1.2,1.0,right,0.5785625040007291,32.66907275500125,None,1.0,blue,,,4.0,13.0,2.0,1.0,32.66907275500125,None
104,44.0,,0.0,down,2020_Apr_04_0836,stroop,59.98458072042144,,,green,2.0,2020.1.2,1.0,down,1.0941943250072654,33.749477559991654,None,1.0,red,,,1.0,14.0,2.0,2.0,33.749477559991654,None
105,45.0,,0.0,left,2020_Apr_04_0836,stroop,59.98458072042144,,,red,2.0,2020.1.2,1.0,left,0.7751990169927012,35.34946346201468,None,1.0,blue,,,5.0,15.0,2.0,3.0,35.34946346201468,None
106,46.0,,0.0,right,2020_Apr_04_0836,stroop,59.98458072042144,,,blue,2.0,2020.1.2,1.0,right,0.6989805630000774,36.63563516299473,None,1.0,green,,,3.0,16.0,2.0,4.0,36.63563516299473,None
107,47.0,,1.0,left,2020_Apr_04_0836,stroop,59.98458072042144,,,red,2.0,2020.1.2,1.0,left,0.6593042470049113,37.83341769198887,None,1.0,red,,,0.0,17.0,2.0,5.0,37.83341769198887,None
108,48.0,,1.0,down,2020_Apr_04_0836,stroop,59.98458072042144,,,green,2.0,2020.1.2,1.0,down,0.6262695339974016,39.00043889600784,None,1.0,green,,,2.0,18.0,3.0,0.0,39.00043889600784,None
109,49.0,,1.0,right,2020_Apr_04_0836,stroop,59.98458072042144,,,blue,2.0,2020.1.2,1.0,right,0.6271650729759131,40.13344848799171,None,1.0,blue,,,4.0,19.0,3.0,1.0,40.13344848799171,None
110,50.0,,0.0,down,2020_Apr_04_0836,stroop,59.98458072042144,,,green,2.0,2020.1.2,1.0,down,1.2810242249979638,41.266396630002426,None,1.0,red,,,1.0,20.0,3.0,2.0,41.266396630002426,None
111,51.0,,1.0,left,2020_Apr_04_0836,stroop,59.98458072042144,,,red,2.0,2020.1.2,1.0,left,0.8156221290118992,43.050916295003844,None,1.0,red,,,0.0,21.0,3.0,3.0,43.050916295003844,None
112,52.0,,0.0,left,2020_Apr_04_0836,stroop,59.98458072042144,,,red,2.0,2020.1.2,1.0,left,1.286366187996464,44.37009004701394,None,1.0,blue,,,5.0,22.0,3.0,4.0,44.37009004701394,None
113,53.0,,0.0,right,2020_Apr_04_0836,stroop,59.98458072042144,,,blue,2.0,2020.1.2,1.0,right,0.5561911969853099,46.16625761901378,None,1.0,green,,,3.0,23.0,3.0,5.0,46.16625761901378,None
114,54.0,,1.0,right,2020_Apr_04_0836,stroop,59.98458072042144,,,blue,2.0,2020.1.2,1.0,right,0.5614799539907835,47.23373552699922,None,1.0,blue,,,4.0,24.0,4.0,0.0,47.23373552699922,None
115,55.0,,0.0,right,2020_Apr_04_0836,stroop,59.98458072042144,,,blue,2.0,2020.1.2,1.0,right,0.3758238550217357,48.29955898199114,None,1.0,green,,,3.0,25.0,4.0,1.0,48.29955898199114,None
116,56.0,,0.0,down,2020_Apr_04_0836,stroop,59.98458072042144,,,green,2.0,2020.1.2,1.0,down,0.5663205290038604,49.18590050301282,None,1.0,red,,,1.0,26.0,4.0,2.0,49.18590050301282,None
117,57.0,,1.0,down,2020_Apr_04_0836,stroop,59.98458072042144,,,green,2.0,2020.1.2,1.0,down,0.9979840820014942,50.27032390100065,None,1.0,green,,,2.0,27.0,4.0,3.0,50.27032390100065,None
118,58.0,,1.0,left,2020_Apr_04_0836,stroop,59.98458072042144,,,red,2.0,2020.1.2,1.0,left,0.5851000909751747,51.76615160598885,None,1.0,red,,,0.0,28.0,4.0,4.0,51.76615160598885,None
119,59.0,,0.0,left,2020_Apr_04_0836,stroop,59.98458072042144,,,red,2.0,2020.1.2,1.0,left,0.8931036239955574,52.84914907001074,None,1.0,blue,,,5.0,29.0,4.0,5.0,52.84914907001074,None
120,60.0,,0.0,right,2020_Apr_04_0837,stroop,60.27664509172807,11.676368519023526,None,blue,3.0,2020.1.2,1.0,right,0.8550324859970715,13.22638175301836,None,1.0,green,,,3.0,0.0,0.0,0.0,13.22638175301836,None
121,61.0,,1.0,down,2020_Apr_04_0837,stroop,60.27664509172807,,,green,3.0,2020.1.2,1.0,down,0.7414634599990677,14.589858204999473,None,1.0,green,,,2.0,1.0,0.0,1.0,14.589858204999473,None
122,62.0,,0.0,down,2020_Apr_04_0837,stroop,60.27664509172807,,,green,3.0,2020.1.2,1.0,down,0.6349451109999791,15.843385209009284,None,1.0,red,,,1.0,2.0,0.0,2.0,15.843385209009284,None
123,63.0,,1.0,right,2020_Apr_04_0837,stroop,60.27664509172807,,,blue,3.0,2020.1.2,1.0,right,0.6370294659864157,16.993305488023907,None,1.0,blue,,,4.0,3.0,0.0,3.0,16.993305488023907,None
124,64.0,,0.0,left,2020_Apr_04_0837,stroop,60.27664509172807,,,red,3.0,2020.1.2,1.0,left,0.6847549520025495,18.142429101018934,None,1.0,blue,,,5.0,4.0,0.0,4.0,18.142429101018934,None
125,65.0,,1.0,left,2020_Apr_04_0837,stroop,60.27664509172807,,,red,3.0,2020.1.2,1.0,left,0.5201150630018674,19.343191081017718,None,1.0,red,,,0.0,5.0,0.0,5.0,19.343191081017718,None
126,66.0,,1.0,down,2020_Apr_04_0837,stroop,60.27664509172807,,,green,3.0,2020.1.2,1.0,down,0.7564978619921021,20.37657889199909,None,1.0,green,,,2.0,6.0,1.0,0.0,20.37657889199909,None
127,67.0,,0.0,down,2020_Apr_04_0837,stroop,60.27664509172807,,,green,3.0,2020.1.2,1.0,down,0.3595193829969503,21.642590410017878,None,1.0,red,,,1.0,7.0,1.0,1.0,21.642590410017878,None
128,68.0,,1.0,right,2020_Apr_04_0837,stroop,60.27664509172807,,,blue,3.0,2020.1.2,1.0,right,0.4646190850180574,22.509418215020556,None,1.0,blue,,,4.0,8.0,1.0,2.0,22.509418215020556,None
129,69.0,,0.0,right,2020_Apr_04_0837,stroop,60.27664509172807,,,blue,3.0,2020.1.2,1.0,right,0.5613639210059773,23.47674856701633,None,1.0,green,,,3.0,9.0,1.0,3.0,23.47674856701633,None
130,70.0,,1.0,left,2020_Apr_04_0837,stroop,60.27664509172807,,,red,3.0,2020.1.2,0.0,down,0.6498190069978591,24.54319789801957,None,1.0,red,,,0.0,10.0,1.0,4.0,24.54319789801957,None
131,71.0,,0.0,left,2020_Apr_04_0837,stroop,60.27664509172807,,,red,3.0,2020.1.2,1.0,left,0.8148503889970016,25.70722656100407,None,1.0,blue,,,5.0,11.0,1.0,5.0,25.70722656100407,None
132,72.0,,1.0,right,2020_Apr_04_0837,stroop,60.27664509172807,,,blue,3.0,2020.1.2,1.0,right,1.7743221200071275,27.02687594201416,None,1.0,blue,,,4.0,12.0,2.0,0.0,27.02687594201416,None
133,73.0,,1.0,down,2020_Apr_04_0837,stroop,60.27664509172807,,,green,3.0,2020.1.2,1.0,down,0.5409276999998838,29.308105091011385,None,1.0,green,,,2.0,13.0,2.0,1.0,29.308105091011385,None
134,74.0,,0.0,left,2020_Apr_04_0837,stroop,60.27664509172807,,,red,3.0,2020.1.2,1.0,left,0.5474638289888389,30.357530939014396,None,1.0,blue,,,5.0,14.0,2.0,2.0,30.357530939014396,None
135,75.0,,1.0,left,2020_Apr_04_0837,stroop,60.27664509172807,,,red,3.0,2020.1.2,1.0,left,0.5605552139750216,31.408285436016737,None,1.0,red,,,0.0,15.0,2.0,3.0,31.408285436016737,None
136,76.0,,0.0,right,2020_Apr_04_0837,stroop,60.27664509172807,,,blue,3.0,2020.1.2,1.0,right,0.9500128839863464,32.47504441899946,None,1.0,green,,,3.0,16.0,2.0,4.0,32.47504441899946,None
137,77.0,,0.0,down,2020_Apr_04_0837,stroop,60.27664509172807,,,green,3.0,2020.1.2,1.0,down,0.941859537997516,33.94387698802166,None,1.0,red,,,1.0,17.0,2.0,5.0,33.94387698802166,None
138,78.0,,1.0,left,2020_Apr_04_0837,stroop,60.27664509172807,,,red,3.0,2020.1.2,1.0,left,0.7254886519804131,35.392227730015286,None,1.0,red,,,0.0,18.0,3.0,0.0,35.392227730015286,None
139,79.0,,1.0,down,2020_Apr_04_0837,stroop,60.27664509172807,,,green,3.0,2020.1.2,1.0,down,1.019151510001393,36.623783311020816,None,1.0,green,,,2.0,19.0,3.0,1.0,36.623783311020816,None
140,80.0,,1.0,right,2020_Apr_04_0837,stroop,60.27664509172807,,,blue,3.0,2020.1.2,1.0,right,0.6988897250266746,38.156861824012594,None,1.0,blue,,,4.0,20.0,3.0,2.0,38.156861824012594,None
141,81.0,,0.0,left,2020_Apr_04_0837,stroop,60.27664509172807,,,red,3.0,2020.1.2,1.0,left,0.8197651829977985,39.357952848018606,None,1.0,blue,,,5.0,21.0,3.0,3.0,39.357952848018606,None
142,82.0,,0.0,right,2020_Apr_04_0837,stroop,60.27664509172807,,,blue,3.0,2020.1.2,1.0,right,1.3041984489827882,40.690384215005906,None,1.0,green,,,3.0,22.0,3.0,4.0,40.690384215005906,None
143,83.0,,0.0,down,2020_Apr_04_0837,stroop,60.27664509172807,,,green,3.0,2020.1.2,1.0,down,1.1044929159979802,42.50713024300058,None,1.0,red,,,1.0,23.0,3.0,5.0,42.50713024300058,None
144,84.0,,1.0,down,2020_Apr_04_0837,stroop,60.27664509172807,,,green,3.0,2020.1.2,1.0,down,0.5087708680075593,44.12390248599695,None,1.0,green,,,2.0,24.0,4.0,0.0,44.12390248599695,None
145,85.0,,0.0,right,2020_Apr_04_0837,stroop,60.27664509172807,,,blue,3.0,2020.1.2,1.0,right,0.6535862559976522,45.142023363005144,None,1.0,green,,,3.0,25.0,4.0,1.0,45.142023363005144,None
146,86.0,,0.0,left,2020_Apr_04_0837,stroop,60.27664509172807,,,red,3.0,2020.1.2,1.0,left,0.6683439940097742,46.30709425499664,None,1.0,blue,,,5.0,26.0,4.0,2.0,46.30709425499664,None
147,87.0,,0.0,down,2020_Apr_04_0837,stroop,60.27664509172807,,,green,3.0,2020.1.2,1.0,down,0.9502559779793956,47.476172964001314,None,1.0,red,,,1.0,27.0,4.0,3.0,47.476172964001314,None
148,88.0,,1.0,right,2020_Apr_04_0837,stroop,60.27664509172807,,,blue,3.0,2020.1.2,1.0,right,0.7193786249845289,48.9421059510205,None,1.0,blue,,,4.0,28.0,4.0,4.0,48.9421059510205,None
149,89.0,,1.0,left,2020_Apr_04_0837,stroop,60.27664509172807,,,red,3.0,2020.1.2,1.0,left,0.5427653150109109,50.17359020499862,None,1.0,red,,,0.0,29.0,4.0,5.0,50.17359020499862,None
150,,,1.0,left,2020_Apr_04_0836,stroop,59.98458072042144,10.652306149015203,None,red,2.0,2020.1.2,1.0,left,0.8709385730035137,13.003217362012947,None,1.0,red,,,0.0,0.0,0.0,0.0,13.003217362012947,None
151,,,1.0,right,2020_Apr_04_0836,stroop,59.98458072042144,,,blue,2.0,2020.1.2,1.0,right,0.7522510720009449,14.384973976004405,None,1.0,blue,,,4.0,1.0,0.0,1.0,14.384973976004405,None
152,,,0.0,down,2020_Apr_04_0836,stroop,59.98458072042144,,,green,2.0,2020.1.2,1.0,down,0.8175212960049976,15.65262122801505,None,1.0,red,,,1.0,2.0,0.0,2.0,15.65262122801505,None
153,,,0.0,left,2020_Apr_04_0836,stroop,59.98458072042144,,,red,2.0,2020.1.2,1.0,left,1.010868319979636,16.985286189010367,None,1.0,blue,,,5.0,3.0,0.0,3.0,16.985286189010367,None
154,,,0.0,right,2020_Apr_04_0836,stroop,59.98458072042144,,,blue,2.0,2020.1.2,1.0,right,2.2865784160094336,18.50242132198764,None,1.0,green,,,3.0,4.0,0.0,4.0,18.50242132198764,None
155,,,1.0,down,2020_Apr_04_0836,stroop,59.98458072042144,,,green,2.0,2020.1.2,1.0,down,0.8924100099829957,21.28450308399624,None,1.0,green,,,2.0,5.0,0.0,5.0,21.28450308399624,None
156,,,0.0,left,2020_Apr_04_0836,stroop,59.98458072042144,,,red,2.0,2020.1.2,1.0,left,0.6428713939967565,22.685183933004733,None,1.0,blue,,,5.0,6.0,1.0,0.0,22.685183933004733,None
157,,,1.0,left,2020_Apr_04_0836,stroop,59.98458072042144,,,red,2.0,2020.1.2,1.0,left,0.4467519820027519,23.836097980005437,None,1.0,red,,,0.0,7.0,1.0,1.0,23.836097980005437,None
158,,,0.0,right,2020_Apr_04_0836,stroop,59.98458072042144,,,blue,2.0,2020.1.2,1.0,right,0.8207673759898171,24.7850832400145,None,1.0,green,,,3.0,8.0,1.0,2.0,24.7850832400145,None
159,,,1.0,down,2020_Apr_04_0836,stroop,59.98458072042144,,,green,2.0,2020.1.2,1.0,down,0.8734819339879323,26.117317489988643,None,1.0,green,,,2.0,9.0,1.0,3.0,26.117317489988643,None
160,,,1.0,right,2020_Apr_04_0836,stroop,59.98458072042144,,,blue,2.0,2020.1.2,1.0,right,1.2083848890033548,27.500600703991946,None,1.0,blue,,,4.0,10.0,1.0,4.0,27.500600703991946,None
161,,,0.0,down,2020_Apr_04_0836,stroop,59.98458072042144,,,green,2.0,2020.1.2,1.0,down,1.8687637029797768,29.21624484201311,None,1.0,red,,,1.0,11.0,1.0,5.0,29.21624484201311,None
162,,,1.0,down,2020_Apr_04_0836,stroop,59.98458072042144,,,green,2.0,2020.1.2,1.0,down,0.565896983986022,31.599888461001683,None,1.0,green,,,2.0,12.0,2.0,0.0,31.599888461001683,None
163,,,1.0,right,2020_Apr_04_0836,stroop,59.98458072042144,,,blue,2.0,2020.1.2,1.0,right,0.5785625040007291,32.66907275500125,None,1.0,blue,,,4.0,13.0,2.0,1.0,32.66907275500125,None
164,,,0.0,down,2020_Apr_04_0836,stroop,59.98458072042144,,,green,2.0,2020.1.2,1.0,down,1.0941943250072654,33.749477559991654,None,1.0,red,,,1.0,14.0,2.0,2.0,33.749477559991654,None
165,,,0.0,left,2020_Apr_04_0836,stroop,59.98458072042144,,,red,2.0,2020.1.2,1.0,left,0.7751990169927012,35.34946346201468,None,1.0,blue,,,5.0,15.0,2.0,3.0,35.34946346201468,None
166,,,0.0,right,2020_Apr_04_0836,stroop,59.98458072042144,,,blue,2.0,2020.1.2,1.0,right,0.6989805630000774,36.63563516299473,None,1.0,green,,,3.0,16.0,2.0,4.0,36.63563516299473,None
167,,,1.0,left,2020_Apr_04_0836,stroop,59.98458072042144,,,red,2.0,2020.1.2,1.0,left,0.6593042470049113,37.83341769198887,None,1.0,red,,,0.0,17.0,2.0,5.0,37.83341769198887,None
168,,,1.0,down,2020_Apr_04_0836,stroop,59.98458072042144,,,green,2.0,2020.1.2,1.0,down,0.6262695339974016,39.00043889600784,None,1.0,green,,,2.0,18.0,3.0,0.0,39.00043889600784,None
169,,,1.0,right,2020_Apr_04_0836,stroop,59.98458072042144,,,blue,2.0,2020.1.2,1.0,right,0.6271650729759131,40.13344848799171,None,1.0,blue,,,4.0,19.0,3.0,1.0,40.13344848799171,None
170,,,0.0,down,2020_Apr_04_0836,stroop,59.98458072042144,,,green,2.0,2020.1.2,1.0,down,1.2810242249979638,41.266396630002426,None,1.0,red,,,1.0,20.0,3.0,2.0,41.266396630002426,None
171,,,1.0,left,2020_Apr_04_0836,stroop,59.98458072042144,,,red,2.0,2020.1.2,1.0,left,0.8156221290118992,43.050916295003844,None,1.0,red,,,0.0,21.0,3.0,3.0,43.050916295003844,None
172,,,0.0,left,2020_Apr_04_0836,stroop,59.98458072042144,,,red,2.0,2020.1.2,1.0,left,1.286366187996464,44.37009004701394,None,1.0,blue,,,5.0,22.0,3.0,4.0,44.37009004701394,None
173,,,0.0,right,2020_Apr_04_0836,stroop,59.98458072042144,,,blue,2.0,2020.1.2,1.0,right,0.5561911969853099,46.16625761901378,None,1.0,green,,,3.0,23.0,3.0,5.0,46.16625761901378,None
174,,,1.0,right,2020_Apr_04_0836,stroop,59.98458072042144,,,blue,2.0,2020.1.2,1.0,right,0.5614799539907835,47.23373552699922,None,1.0,blue,,,4.0,24.0,4.0,0.0,47.23373552699922,None
175,,,0.0,right,2020_Apr_04_0836,stroop,59.98458072042144,,,blue,2.0,2020.1.2,1.0,right,0.3758238550217357,48.29955898199114,None,1.0,green,,,3.0,25.0,4.0,1.0,48.29955898199114,None
176,,,0.0,down,2020_Apr_04_0836,stroop,59.98458072042144,,,green,2.0,2020.1.2,1.0,down,0.5663205290038604,49.18590050301282,None,1.0,red,,,1.0,26.0,4.0,2.0,49.18590050301282,None
177,,,1.0,down,2020_Apr_04_0836,stroop,59.98458072042144,,,green,2.0,2020.1.2,1.0,down,0.9979840820014942,50.27032390100065,None,1.0,green,,,2.0,27.0,4.0,3.0,50.27032390100065,None
178,,,1.0,left,2020_Apr_04_0836,stroop,59.98458072042144,,,red,2.0,2020.1.2,1.0,left,0.5851000909751747,51.76615160598885,None,1.0,red,,,0.0,28.0,4.0,4.0,51.76615160598885,None
179,,,0.0,left,2020_Apr_04_0836,stroop,59.98458072042144,,,red,2.0,2020.1.2,1.0,left,0.8931036239955574,52.849149070010746,None,1.0,blue,,,5.0,29.0,4.0,5.0,52.849149070010746,None
180,,,0.0,,,,,,,,1.0,,,,1.20754543467192,,,,,,,,,,,,
181,,,1.0,,,,,,,,1.0,,,,0.8492034869967029,,,,,,,,,,,,
182,,,0.0,,,,,,,,2.0,,,,0.9983049351974236,,,,,,,,,,,,
183,,,1.0,,,,,,,,2.0,,,,0.7374402038617215,,,,,,,,,,,,
184,,,0.0,,,,,,,,3.0,,,,0.7900296845958413,,,,,,,,,,,,
185,,,1.0,,,,,,,,3.0,,,,0.7239862447992588,,,,,,,,,,,,
186,,,0.0,right,2020_Apr_04_0837,stroop,60.27664509172807,11.676368519023526,None,blue,3.0,2020.1.2,1.0,right,0.8550324859970715,13.22638175301836,None,1.0,green,,,3.0,0.0,0.0,0.0,13.22638175301836,None
187,,,1.0,down,2020_Apr_04_0837,stroop,60.27664509172807,,,green,3.0,2020.1.2,1.0,down,0.7414634599990677,14.589858204999473,None,1.0,green,,,2.0,1.0,0.0,1.0,14.589858204999473,None
188,,,0.0,down,2020_Apr_04_0837,stroop,60.27664509172807,,,green,3.0,2020.1.2,1.0,down,0.6349451109999791,15.843385209009284,None,1.0,red,,,1.0,2.0,0.0,2.0,15.843385209009284,None
189,,,1.0,right,2020_Apr_04_0837,stroop,60.27664509172807,,,blue,3.0,2020.1.2,1.0,right,0.6370294659864157,16.993305488023907,None,1.0,blue,,,4.0,3.0,0.0,3.0,16.993305488023907,None
190,,,0.0,left,2020_Apr_04_0837,stroop,60.27664509172807,,,red,3.0,2020.1.2,1.0,left,0.6847549520025495,18.142429101018934,None,1.0,blue,,,5.0,4.0,0.0,4.0,18.142429101018934,None
191,,,1.0,left,2020_Apr_04_0837,stroop,60.27664509172807,,,red,3.0,2020.1.2,1.0,left,0.5201150630018674,19.343191081017718,None,1.0,red,,,0.0,5.0,0.0,5.0,19.343191081017718,None
192,,,1.0,down,2020_Apr_04_0837,stroop,60.27664509172807,,,green,3.0,2020.1.2,1.0,down,0.7564978619921021,20.37657889199909,None,1.0,green,,,2.0,6.0,1.0,0.0,20.37657889199909,None
193,,,0.0,down,2020_Apr_04_0837,stroop,60.27664509172807,,,green,3.0,2020.1.2,1.0,down,0.3595193829969503,21.642590410017878,None,1.0,red,,,1.0,7.0,1.0,1.0,21.642590410017878,None
194,,,1.0,right,2020_Apr_04_0837,stroop,60.27664509172807,,,blue,3.0,2020.1.2,1.0,right,0.4646190850180574,22.509418215020556,None,1.0,blue,,,4.0,8.0,1.0,2.0,22.509418215020556,None
195,,,0.0,right,2020_Apr_04_0837,stroop,60.27664509172807,,,blue,3.0,2020.1.2,1.0,right,0.5613639210059773,23.47674856701633,None,1.0,green,,,3.0,9.0,1.0,3.0,23.47674856701633,None
196,,,1.0,left,2020_Apr_04_0837,stroop,60.27664509172807,,,red,3.0,2020.1.2,0.0,down,0.6498190069978591,24.54319789801957,None,1.0,red,,,0.0,10.0,1.0,4.0,24.54319789801957,None
197,,,0.0,left,2020_Apr_04_0837,stroop,60.27664509172807,,,red,3.0,2020.1.2,1.0,left,0.8148503889970016,25.707226561004067,None,1.0,blue,,,5.0,11.0,1.0,5.0,25.707226561004067,None
198,,,1.0,right,2020_Apr_04_0837,stroop,60.27664509172807,,,blue,3.0,2020.1.2,1.0,right,1.7743221200071275,27.02687594201416,None,1.0,blue,,,4.0,12.0,2.0,0.0,27.02687594201416,None
199,,,1.0,down,2020_Apr_04_0837,stroop,60.27664509172807,,,green,3.0,2020.1.2,1.0,down,0.5409276999998838,29.308105091011385,None,1.0,green,,,2.0,13.0,2.0,1.0,29.308105091011385,None
200,,,0.0,left,2020_Apr_04_0837,stroop,60.27664509172807,,,red,3.0,2020.1.2,1.0,left,0.5474638289888389,30.357530939014396,None,1.0,blue,,,5.0,14.0,2.0,2.0,30.357530939014396,None
201,,,1.0,left,2020_Apr_04_0837,stroop,60.27664509172807,,,red,3.0,2020.1.2,1.0,left,0.5605552139750216,31.408285436016737,None,1.0,red,,,0.0,15.0,2.0,3.0,31.408285436016737,None
202,,,0.0,right,2020_Apr_04_0837,stroop,60.27664509172807,,,blue,3.0,2020.1.2,1.0,right,0.9500128839863464,32.47504441899946,None,1.0,green,,,3.0,16.0,2.0,4.0,32.47504441899946,None
203,,,0.0,down,2020_Apr_04_0837,stroop,60.27664509172807,,,green,3.0,2020.1.2,1.0,down,0.941859537997516,33.94387698802166,None,1.0,red,,,1.0,17.0,2.0,5.0,33.94387698802166,None
204,,,1.0,left,2020_Apr_04_0837,stroop,60.27664509172807,,,red,3.0,2020.1.2,1.0,left,0.7254886519804131,35.392227730015286,None,1.0,red,,,0.0,18.0,3.0,0.0,35.392227730015286,None
205,,,1.0,down,2020_Apr_04_0837,stroop,60.27664509172807,,,green,3.0,2020.1.2,1.0,down,1.019151510001393,36.623783311020816,None,1.0,green,,,2.0,19.0,3.0,1.0,36.623783311020816,None
206,,,1.0,right,2020_Apr_04_0837,stroop,60.27664509172807,,,blue,3.0,2020.1.2,1.0,right,0.6988897250266746,38.156861824012594,None,1.0,blue,,,4.0,20.0,3.0,2.0,38.156861824012594,None
207,,,0.0,left,2020_Apr_04_0837,stroop,60.27664509172807,,,red,3.0,2020.1.2,1.0,left,0.8197651829977985,39.357952848018606,None,1.0,blue,,,5.0,21.0,3.0,3.0,39.357952848018606,None
208,,,0.0,right,2020_Apr_04_0837,stroop,60.27664509172807,,,blue,3.0,2020.1.2,1.0,right,1.3041984489827882,40.690384215005906,None,1.0,green,,,3.0,22.0,3.0,4.0,40.690384215005906,None
209,,,0.0,down,2020_Apr_04_0837,stroop,60.27664509172807,,,green,3.0,2020.1.2,1.0,down,1.1044929159979802,42.50713024300058,None,1.0,red,,,1.0,23.0,3.0,5.0,42.50713024300058,None
210,,,1.0,down,2020_Apr_04_0837,stroop,60.27664509172807,,,green,3.0,2020.1.2,1.0,down,0.5087708680075593,44.12390248599695,None,1.0,green,,,2.0,24.0,4.0,0.0,44.12390248599695,None
211,,,0.0,right,2020_Apr_04_0837,stroop,60.27664509172807,,,blue,3.0,2020.1.2,1.0,right,0.6535862559976522,45.142023363005144,None,1.0,green,,,3.0,25.0,4.0,1.0,45.142023363005144,None
212,,,0.0,left,2020_Apr_04_0837,stroop,60.27664509172807,,,red,3.0,2020.1.2,1.0,left,0.6683439940097742,46.307094254996635,None,1.0,blue,,,5.0,26.0,4.0,2.0,46.307094254996635,None
213,,,0.0,down,2020_Apr_04_0837,stroop,60.27664509172807,,,green,3.0,2020.1.2,1.0,down,0.9502559779793956,47.476172964001314,None,1.0,red,,,1.0,27.0,4.0,3.0,47.476172964001314,None
214,,,1.0,right,2020_Apr_04_0837,stroop,60.27664509172807,,,blue,3.0,2020.1.2,1.0,right,0.7193786249845289,48.9421059510205,None,1.0,blue,,,4.0,28.0,4.0,4.0,48.9421059510205,None
215,,,1.0,left,2020_Apr_04_0837,stroop,60.27664509172807,,,red,3.0,2020.1.2,1.0,left,0.5427653150109109,50.17359020499862,None,1.0,red,,,0.0,29.0,4.0,5.0,50.17359020499862,None
